"Subject"	"block"	"trial"	"stimulus"	"signal"	"correct"	"respons"	"rt"	"re"	"ssd"
1	0	0	2	0	2	2	985	0	0
1	0	1	1	0	2	1	486	0	0
1	0	2	1	1	2	0	0	0	150
1	0	3	1	1	2	0	0	0	200
1	0	4	2	1	0	2	460	0	250
1	0	5	2	0	2	2	497	0	0
1	0	6	2	1	0	2	381	0	200
1	0	7	1	0	2	1	954	0	0
1	0	8	1	0	2	1	503	8	0
1	0	9	2	0	2	2	532	0	0
1	0	10	2	1	2	0	0	0	150
1	0	11	1	1	2	0	0	0	200
1	0	12	1	0	2	1	570	0	0
1	0	13	2	1	2	0	0	0	250
1	0	14	1	0	2	1	515	0	0
1	0	15	1	0	2	1	528	0	0
1	0	16	2	1	2	0	0	0	300
1	0	17	1	0	2	1	497	0	0
1	0	18	1	0	2	1	574	0	0
1	0	19	2	0	2	2	778	0	0
1	0	20	1	0	2	1	527	8	0
1	0	21	1	0	2	1	420	0	0
1	0	22	1	1	0	1	417	0	350
1	0	23	2	0	2	2	741	9	0
1	0	24	1	0	2	1	458	0	0
1	0	25	1	0	2	1	543	0	0
1	0	26	1	0	2	1	443	0	0
1	0	27	1	1	0	1	384	0	300
1	0	28	2	0	2	2	669	0	0
1	0	29	2	0	2	2	801	0	0
1	0	30	1	0	2	1	422	0	0
1	0	31	1	1	2	0	0	0	250
1	0	32	1	0	2	1	615	0	0
1	0	33	2	0	2	2	620	9	0
1	0	34	1	0	2	1	649	0	0
1	0	35	1	1	2	0	0	0	300
1	0	36	1	0	2	1	474	0	0
1	0	37	2	1	2	0	0	0	350
1	0	38	2	1	2	0	0	0	400
1	0	39	2	0	2	2	744	0	0
1	0	40	1	0	2	1	757	0	0
1	0	41	2	1	2	0	0	0	450
1	0	42	1	1	0	1	438	0	500
1	0	43	1	0	2	1	699	0	0
1	0	44	2	0	2	2	632	0	0
1	0	45	2	0	2	2	764	0	0
1	0	46	2	0	2	2	793	0	0
1	0	47	2	0	2	2	670	0	0
1	0	48	1	0	2	1	914	0	0
1	0	49	2	0	2	2	679	0	0
1	0	50	1	0	2	1	676	0	0
1	0	51	2	0	2	2	801	0	0
1	0	52	2	0	2	2	629	0	0
1	0	53	1	0	2	1	714	0	0
1	0	54	2	0	2	2	911	0	0
1	0	55	2	0	2	2	827	8	0
1	0	56	2	0	2	2	776	8	0
1	0	57	2	0	2	2	885	8	0
1	0	58	1	0	2	1	1041	8	0
1	0	59	2	0	2	2	830	9	0
1	0	60	2	0	2	2	803	0	0
1	0	61	2	0	2	2	815	0	0
1	0	62	2	0	2	2	764	0	0
1	0	63	1	0	2	1	1001	0	0
1	1	0	1	0	2	1	1062	0	0
1	1	1	1	0	2	1	754	0	0
1	1	2	2	0	2	2	559	0	0
1	1	3	2	1	0	2	1036	0	450
1	1	4	2	0	2	2	968	0	0
1	1	5	2	0	2	2	533	0	0
1	1	6	1	1	2	0	0	0	400
1	1	7	1	0	2	1	854	-12	0
1	1	8	2	0	2	2	963	0	0
1	1	9	1	0	2	1	824	0	0
1	1	10	1	0	2	1	725	0	0
1	1	11	2	0	2	2	737	0	0
1	1	12	1	1	0	1	550	0	450
1	1	13	1	1	2	0	0	0	400
1	1	14	2	0	2	2	815	0	0
1	1	15	1	0	2	1	924	0	0
1	1	16	1	0	2	1	1017	8	0
1	1	17	1	1	2	0	0	0	450
1	1	18	1	0	2	1	754	-11	0
1	1	19	1	0	2	1	879	0	0
1	1	20	2	1	2	0	0	0	500
1	1	21	2	1	2	0	0	0	550
1	1	22	2	0	2	2	1053	0	0
1	1	23	2	0	2	2	682	0	0
1	1	24	1	0	2	1	982	0	0
1	1	25	1	0	2	1	971	0	0
1	1	26	2	0	2	2	1104	0	0
1	1	27	2	0	2	2	1052	0	0
1	1	28	2	0	2	2	937	0	0
1	1	29	2	1	2	0	0	0	600
1	1	30	1	0	2	1	930	0	0
1	1	31	2	0	2	2	1039	0	0
1	1	32	1	0	2	1	1092	0	0
1	1	33	1	0	2	1	928	0	0
1	1	34	2	0	2	2	933	0	0
1	1	35	2	1	2	0	0	0	650
1	1	36	2	1	2	0	0	0	700
1	1	37	1	0	2	1	1163	8	0
1	1	38	1	0	2	1	1064	0	0
1	1	39	2	0	2	2	749	9	0
1	1	40	1	1	0	1	881	0	750
1	1	41	2	0	2	2	486	0	0
1	1	42	2	0	2	2	907	0	0
1	1	43	2	0	2	2	1015	0	0
1	1	44	1	0	2	1	964	0	0
1	1	45	2	0	2	2	1193	0	0
1	1	46	2	0	2	2	1133	-12	0
1	1	47	1	0	2	1	930	0	0
1	1	48	2	0	2	2	599	0	0
1	1	49	1	1	2	0	0	0	700
1	1	50	1	0	2	1	536	0	0
1	1	51	1	0	2	1	1229	0	0
1	1	52	1	1	2	0	0	0	750
1	1	53	2	0	2	2	822	0	0
1	1	54	2	1	0	2	995	0	800
1	1	55	2	0	0	0	0	0	0
1	1	56	1	0	2	1	1124	0	0
1	1	57	1	0	2	1	937	0	0
1	1	58	2	0	2	2	870	0	0
1	1	59	1	0	2	1	842	0	0
1	1	60	1	0	2	1	615	0	0
1	1	61	2	1	0	2	908	0	750
1	1	62	2	0	2	2	1240	0	0
1	1	63	1	1	2	0	0	0	700
1	2	0	2	1	2	0	0	0	750
1	2	1	2	1	2	0	0	0	800
1	2	2	1	0	0	0	0	0	0
1	2	3	2	0	2	2	788	0	0
1	2	4	2	1	0	2	721	0	850
1	2	5	2	0	2	2	845	0	0
1	2	6	2	0	2	2	922	0	0
1	2	7	2	0	2	2	847	0	0
1	2	8	2	1	0	2	795	0	800
1	2	9	2	1	0	2	872	0	750
1	2	10	1	0	2	1	829	0	0
1	2	11	1	0	2	1	602	0	0
1	2	12	2	0	2	2	710	0	0
1	2	13	1	1	0	1	667	0	700
1	2	14	1	0	2	1	728	0	0
1	2	15	1	1	2	0	0	0	650
1	2	16	2	0	2	2	633	0	0
1	2	17	1	0	2	1	862	0	0
1	2	18	1	0	2	1	682	0	0
1	2	19	1	0	2	1	695	0	0
1	2	20	1	0	2	1	940	0	0
1	2	21	1	0	2	1	1048	12	0
1	2	22	2	0	2	2	805	0	0
1	2	23	1	0	2	1	874	0	0
1	2	24	1	1	0	1	726	0	700
1	2	25	2	0	2	2	555	0	0
1	2	26	1	0	2	1	360	0	0
1	2	27	2	0	2	2	373	0	0
1	2	28	2	0	0	1	409	0	0
1	2	29	1	0	2	1	598	0	0
1	2	30	1	0	2	1	611	0	0
1	2	31	2	0	2	2	543	0	0
1	2	32	1	0	2	1	492	0	0
1	2	33	2	0	2	2	625	0	0
1	2	34	2	0	2	2	749	0	0
1	2	35	1	1	0	1	706	0	650
1	2	36	2	0	2	2	495	0	0
1	2	37	1	1	0	1	107	0	600
1	2	38	1	0	2	1	560	0	0
1	2	39	1	0	2	1	869	0	0
1	2	40	1	0	2	1	657	0	0
1	2	41	2	1	0	2	790	0	550
1	2	42	2	0	2	2	707	0	0
1	2	43	1	0	2	1	1024	0	0
1	2	44	1	0	2	1	1236	0	0
1	2	45	1	0	2	1	1097	0	0
1	2	46	1	1	2	0	0	0	500
1	2	47	2	0	2	2	482	9	0
1	2	48	2	0	2	2	615	-12	0
1	2	49	2	1	0	2	748	0	550
1	2	50	2	0	2	2	544	8	0
1	2	51	2	0	2	2	589	0	0
1	2	52	1	0	2	1	522	8	0
1	2	53	2	0	2	2	542	9	0
1	2	54	2	0	2	2	667	0	0
1	2	55	1	1	2	0	0	0	500
1	2	56	2	0	2	2	637	0	0
1	2	57	1	1	2	0	0	0	550
1	2	58	2	0	2	2	430	0	0
1	2	59	1	0	2	1	779	0	0
1	2	60	2	1	0	2	543	0	600
1	2	61	1	0	2	1	596	0	0
1	2	62	1	0	2	1	753	0	0
1	2	63	2	0	2	2	597	0	0
2	0	0	1	0	2	1	489	0	0
2	0	1	2	1	0	2	430	0	50
2	0	2	2	0	2	2	386	0	0
2	0	3	2	1	0	2	335	0	50
2	0	4	2	0	2	2	332	0	0
2	0	5	1	1	0	1	392	0	50
2	0	6	2	0	2	2	397	0	0
2	0	7	1	0	2	1	362	0	0
2	0	8	2	0	2	2	382	0	0
2	0	9	1	0	2	1	355	0	0
2	0	10	2	0	2	2	424	9	0
2	0	11	1	0	2	1	340	0	0
2	0	12	2	0	2	2	377	0	0
2	0	13	1	1	0	1	326	0	50
2	0	14	2	1	0	2	347	0	50
2	0	15	1	1	0	1	311	0	50
2	0	16	1	0	2	1	412	0	0
2	0	17	2	0	2	2	409	0	0
2	0	18	2	1	0	2	365	0	50
2	0	19	1	1	0	1	322	0	50
2	0	20	1	0	2	1	519	0	0
2	0	21	2	0	2	2	451	0	0
2	0	22	1	0	2	1	368	0	0
2	0	23	1	1	2	0	0	0	50
2	0	24	1	0	2	1	401	0	0
2	0	25	2	1	0	2	414	0	100
2	0	26	1	1	2	0	0	0	50
2	0	27	1	0	2	1	447	0	0
2	0	28	2	1	2	0	0	0	100
2	0	29	1	0	2	1	465	0	0
2	0	30	1	0	2	1	494	0	0
2	0	31	2	0	2	2	386	0	0
2	0	32	1	0	2	1	479	0	0
2	0	33	1	0	2	1	380	0	0
2	0	34	2	0	2	2	408	0	0
2	0	35	1	0	2	1	413	0	0
2	0	36	2	0	2	2	386	0	0
2	0	37	1	0	2	1	398	0	0
2	0	38	1	1	0	1	387	0	150
2	0	39	1	0	2	1	392	8	0
2	0	40	2	0	2	2	436	0	0
2	0	41	1	1	2	0	0	0	100
2	0	42	2	0	2	2	414	0	0
2	0	43	2	1	0	2	371	0	150
2	0	44	2	1	0	2	367	0	100
2	0	45	1	0	2	1	404	0	0
2	0	46	2	0	2	2	545	0	0
2	0	47	2	0	2	2	517	0	0
2	0	48	2	0	2	2	434	0	0
2	0	49	2	0	2	2	375	0	0
2	0	50	1	0	2	1	451	0	0
2	0	51	1	0	2	1	440	0	0
2	0	52	1	0	2	1	421	9	0
2	0	53	1	0	2	1	633	0	0
2	0	54	2	0	2	2	462	0	0
2	0	55	1	0	2	1	403	0	0
2	0	56	2	0	2	2	511	0	0
2	0	57	1	0	2	1	396	0	0
2	0	58	2	0	2	2	449	0	0
2	0	59	2	0	2	2	446	0	0
2	0	60	2	0	2	2	426	-12	0
2	0	61	2	0	2	2	471	0	0
2	0	62	2	0	2	2	380	0	0
2	0	63	1	0	2	1	472	0	0
2	1	0	2	0	2	2	767	0	0
2	1	1	2	0	2	2	276	0	0
2	1	2	2	0	2	2	377	0	0
2	1	3	1	1	2	0	0	0	50
2	1	4	2	0	2	2	370	0	0
2	1	5	2	0	2	2	415	0	0
2	1	6	1	0	2	1	419	0	0
2	1	7	1	0	2	1	464	0	0
2	1	8	1	0	2	1	413	0	0
2	1	9	1	0	2	1	385	0	0
2	1	10	2	0	2	2	414	0	0
2	1	11	1	0	2	1	387	0	0
2	1	12	1	0	2	1	415	0	0
2	1	13	2	1	2	0	0	0	100
2	1	14	1	0	2	1	433	0	0
2	1	15	2	1	0	2	430	0	150
2	1	16	2	0	2	2	706	0	0
2	1	17	1	0	2	1	535	0	0
2	1	18	2	1	2	0	0	0	100
2	1	19	1	0	2	1	496	0	0
2	1	20	2	0	2	2	477	0	0
2	1	21	1	1	2	0	0	0	150
2	1	22	2	0	2	2	382	0	0
2	1	23	2	0	2	2	443	0	0
2	1	24	1	1	0	1	416	0	200
2	1	25	2	0	2	2	476	0	0
2	1	26	2	0	2	2	433	0	0
2	1	27	1	0	2	1	350	0	0
2	1	28	1	1	0	1	474	0	150
2	1	29	1	0	0	0	0	0	0
2	1	30	2	0	2	2	380	0	0
2	1	31	1	0	2	1	481	0	0
2	1	32	2	0	2	2	429	0	0
2	1	33	2	1	0	2	498	0	100
2	1	34	1	0	2	1	575	0	0
2	1	35	1	0	2	1	467	0	0
2	1	36	2	0	2	2	488	0	0
2	1	37	2	0	2	2	469	0	0
2	1	38	1	1	2	0	0	0	50
2	1	39	1	0	2	1	414	-10	0
2	1	40	2	0	2	2	395	0	0
2	1	41	2	1	0	2	391	0	100
2	1	42	2	0	2	2	396	0	0
2	1	43	1	1	2	0	0	0	50
2	1	44	2	1	2	0	0	0	100
2	1	45	1	0	2	1	394	0	0
2	1	46	1	1	2	0	0	0	150
2	1	47	1	1	2	0	0	0	200
2	1	48	1	0	2	1	448	0	0
2	1	49	2	0	2	2	469	0	0
2	1	50	1	0	2	1	690	0	0
2	1	51	2	0	2	2	598	0	0
2	1	52	1	0	2	1	539	0	0
2	1	53	1	0	2	1	424	0	0
2	1	54	2	1	0	2	428	0	250
2	1	55	1	0	2	1	393	0	0
2	1	56	1	0	2	1	510	0	0
2	1	57	2	0	2	2	434	0	0
2	1	58	1	0	2	1	383	0	0
2	1	59	2	0	2	2	484	0	0
2	1	60	2	0	2	2	593	0	0
2	1	61	2	0	2	2	533	0	0
2	1	62	2	1	0	2	474	9	200
2	1	63	1	0	2	1	415	0	0
2	2	0	1	0	2	1	503	0	0
2	2	1	2	1	0	2	411	0	150
2	2	2	1	0	2	1	376	0	0
2	2	3	2	0	2	2	461	0	0
2	2	4	1	0	2	1	442	0	0
2	2	5	2	1	2	0	0	0	100
2	2	6	2	0	2	2	427	0	0
2	2	7	1	0	2	1	408	0	0
2	2	8	1	1	2	0	0	0	150
2	2	9	2	0	2	2	449	0	0
2	2	10	1	0	2	1	518	0	0
2	2	11	2	0	2	2	426	0	0
2	2	12	1	0	2	1	463	0	0
2	2	13	2	0	2	2	404	0	0
2	2	14	2	0	2	2	392	0	0
2	2	15	2	0	2	2	405	8	0
2	2	16	2	0	2	2	386	0	0
2	2	17	2	1	0	2	367	0	200
2	2	18	1	1	2	0	0	0	150
2	2	19	1	1	2	0	0	0	200
2	2	20	1	0	2	1	533	0	0
2	2	21	2	0	2	2	601	0	0
2	2	22	1	1	2	0	0	0	250
2	2	23	2	1	0	2	427	0	300
2	2	24	2	1	2	0	0	0	250
2	2	25	1	0	2	1	468	0	0
2	2	26	2	0	2	2	577	0	0
2	2	27	2	0	2	2	421	0	0
2	2	28	1	0	2	1	506	0	0
2	2	29	1	0	2	1	535	0	0
2	2	30	1	0	2	1	515	0	0
2	2	31	1	0	2	1	440	0	0
2	2	32	1	0	2	1	437	0	0
2	2	33	1	0	2	1	570	0	0
2	2	34	1	1	2	0	0	0	300
2	2	35	2	1	0	2	427	0	350
2	2	36	1	0	2	1	504	0	0
2	2	37	1	0	2	1	724	0	0
2	2	38	1	0	2	1	409	0	0
2	2	39	1	0	2	1	438	0	0
2	2	40	2	0	2	2	490	0	0
2	2	41	1	0	2	1	423	0	0
2	2	42	2	0	2	2	452	8	0
2	2	43	1	0	2	1	416	0	0
2	2	44	1	1	0	1	397	0	300
2	2	45	2	0	2	2	426	0	0
2	2	46	2	0	2	2	423	0	0
2	2	47	1	0	2	1	459	0	0
2	2	48	2	0	2	2	376	0	0
2	2	49	1	1	2	0	0	0	250
2	2	50	1	0	2	1	417	0	0
2	2	51	2	0	2	2	542	0	0
2	2	52	2	0	2	2	459	0	0
2	2	53	2	0	2	2	471	0	0
2	2	54	2	1	2	0	0	0	300
2	2	55	2	0	2	2	401	0	0
2	2	56	2	0	2	2	421	0	0
2	2	57	1	0	2	1	362	0	0
2	2	58	2	0	2	2	391	0	0
2	2	59	2	0	2	2	387	0	0
2	2	60	2	0	2	2	424	0	0
2	2	61	1	0	2	1	429	0	0
2	2	62	1	1	0	1	450	0	350
2	2	63	2	1	0	2	422	0	300
3	0	0	2	0	2	2	1023	0	0
3	0	1	1	0	2	1	587	0	0
3	0	2	1	0	2	1	664	0	0
3	0	3	2	0	2	2	501	9	0
3	0	4	2	0	2	2	457	8	0
3	0	5	1	1	0	1	646	0	200
3	0	6	2	1	2	0	0	0	150
3	0	7	2	1	2	0	0	0	200
3	0	8	2	0	0	0	0	0	0
3	0	9	1	0	0	0	0	0	0
3	0	10	2	0	0	0	0	0	0
3	0	11	1	0	0	0	0	0	0
3	0	12	2	0	0	0	0	0	0
3	0	13	2	0	0	0	0	0	0
3	0	14	1	0	0	0	0	0	0
3	0	15	1	1	2	0	0	0	250
3	0	16	1	0	0	0	0	0	0
3	0	17	2	0	0	0	0	0	0
3	0	18	2	0	0	0	0	0	0
3	0	19	2	1	2	0	0	0	300
3	0	20	1	1	2	0	0	0	350
3	0	21	2	0	0	0	0	0	0
3	0	22	2	0	2	2	582	0	0
3	0	23	2	1	0	2	410	0	400
3	0	24	1	1	0	1	535	8	350
3	0	25	1	0	0	0	0	0	0
3	0	26	2	0	0	0	0	0	0
3	0	27	1	0	0	0	0	0	0
3	0	28	1	0	0	0	0	0	0
3	0	29	1	0	0	0	0	0	0
3	0	30	1	1	2	0	0	0	300
3	0	31	2	0	0	0	0	0	0
3	0	32	1	1	2	0	0	0	350
3	0	33	1	0	0	0	0	0	0
3	0	34	2	1	2	0	0	0	400
3	0	35	2	0	2	2	579	0	0
3	0	36	1	1	0	1	551	0	450
3	0	37	1	1	2	0	0	0	400
3	0	38	2	0	2	2	601	9	0
3	0	39	2	1	0	2	517	0	450
3	0	40	1	0	0	0	0	0	0
3	0	41	2	0	2	2	647	0	0
3	0	42	1	0	2	1	500	0	0
3	0	43	1	0	2	1	544	12	0
3	0	44	1	0	2	1	493	0	0
3	0	45	2	0	2	2	474	0	0
3	0	46	2	0	2	2	454	0	0
3	0	47	2	0	2	2	499	0	0
3	0	48	2	0	2	2	440	0	0
3	0	49	1	0	2	1	548	0	0
3	0	50	1	0	2	1	617	-9	0
3	0	51	1	0	2	1	518	0	0
3	0	52	1	0	2	1	634	0	0
3	0	53	2	1	0	2	551	8	400
3	0	54	1	0	2	1	556	8	0
3	0	55	1	0	2	1	617	0	0
3	0	56	2	0	2	2	613	0	0
3	0	57	2	0	2	2	546	0	0
3	0	58	1	0	2	1	527	0	0
3	0	59	2	0	2	2	611	0	0
3	0	60	2	1	0	2	528	0	350
3	0	61	2	0	2	2	525	9	0
3	0	62	1	0	2	1	609	0	0
3	0	63	1	0	2	1	614	8	0
3	1	0	1	0	2	1	551	0	0
3	1	1	2	0	2	2	500	0	0
3	1	2	2	0	2	2	392	0	0
3	1	3	1	0	2	1	557	0	0
3	1	4	2	0	2	2	450	0	0
3	1	5	2	0	2	2	430	0	0
3	1	6	2	1	0	2	443	0	300
3	1	7	2	1	2	0	0	0	250
3	1	8	1	0	2	1	468	0	0
3	1	9	2	0	2	2	601	0	0
3	1	10	2	0	2	2	654	0	0
3	1	11	1	1	2	0	0	0	300
3	1	12	2	1	0	2	503	8	350
3	1	13	2	0	2	2	708	0	0
3	1	14	1	0	2	1	465	0	0
3	1	15	1	1	2	0	0	0	300
3	1	16	1	1	0	1	498	0	350
3	1	17	2	0	2	2	575	0	0
3	1	18	1	0	2	1	651	0	0
3	1	19	2	0	2	2	592	0	0
3	1	20	2	1	0	2	525	0	300
3	1	21	1	0	2	1	625	9	0
3	1	22	1	0	2	1	590	0	0
3	1	23	2	0	2	2	555	0	0
3	1	24	1	1	2	0	0	0	250
3	1	25	1	0	2	1	532	0	0
3	1	26	1	0	2	1	481	0	0
3	1	27	1	0	2	1	566	0	0
3	1	28	1	1	2	0	0	0	300
3	1	29	1	0	2	1	503	0	0
3	1	30	2	0	2	2	572	8	0
3	1	31	1	0	2	1	640	0	0
3	1	32	2	0	2	2	557	0	0
3	1	33	1	0	2	1	578	0	0
3	1	34	2	0	2	2	510	0	0
3	1	35	1	1	0	1	515	0	350
3	1	36	2	0	2	2	736	9	0
3	1	37	2	0	2	2	548	0	0
3	1	38	1	0	2	1	593	0	0
3	1	39	2	0	2	2	494	0	0
3	1	40	1	0	2	1	586	0	0
3	1	41	1	0	2	1	583	0	0
3	1	42	2	1	0	2	604	0	300
3	1	43	1	0	2	1	593	0	0
3	1	44	1	1	2	0	0	0	250
3	1	45	1	1	2	0	0	0	300
3	1	46	1	0	2	1	823	0	0
3	1	47	2	0	2	2	451	0	0
3	1	48	1	0	2	1	344	0	0
3	1	49	1	0	2	1	613	0	0
3	1	50	2	0	2	2	505	0	0
3	1	51	1	0	2	1	462	0	0
3	1	52	1	0	0	2	467	0	0
3	1	53	2	1	0	2	1071	8	350
3	1	54	2	1	2	0	0	0	300
3	1	55	2	0	2	2	489	0	0
3	1	56	1	0	2	1	510	8	0
3	1	57	2	1	0	2	914	0	350
3	1	58	2	0	2	2	831	0	0
3	1	59	2	0	2	2	1108	0	0
3	1	60	2	0	2	2	568	0	0
3	1	61	1	0	2	1	541	0	0
3	1	62	2	0	2	2	626	0	0
3	1	63	2	0	2	2	734	0	0
3	2	0	1	0	-1	3	-1	-1	-1
3	2	1	1	0	-1	-1	-1	-1	-1
3	2	2	1	0	-1	-1	-1	-1	-1
3	2	3	1	1	-1	-1	-1	-1	-1
3	2	4	2	0	-1	-1	-1	-1	-1
3	2	5	1	0	-1	-1	-1	-1	-1
3	2	6	1	0	-1	-1	-1	-1	-1
3	2	7	2	0	-1	-1	-1	-1	-1
3	2	8	1	0	-1	-1	-1	-1	-1
3	2	9	1	0	-1	-1	-1	-1	-1
3	2	10	1	0	-1	-1	-1	-1	-1
3	2	11	1	0	-1	-1	-1	-1	-1
3	2	12	2	0	-1	-1	-1	-1	-1
3	2	13	2	0	-1	-1	-1	-1	-1
3	2	14	2	0	-1	-1	-1	-1	-1
3	2	15	2	0	-1	-1	-1	-1	-1
3	2	16	2	0	-1	-1	-1	-1	-1
3	2	17	2	0	-1	-1	-1	-1	-1
3	2	18	2	0	-1	-1	-1	-1	-1
3	2	19	2	1	-1	-1	-1	-1	-1
3	2	20	2	1	-1	-1	-1	-1	-1
3	2	21	1	0	-1	-1	-1	-1	-1
3	2	22	1	1	-1	-1	-1	-1	-1
3	2	23	1	1	-1	-1	-1	-1	-1
3	2	24	2	0	-1	-1	-1	-1	-1
3	2	25	2	1	-1	-1	-1	-1	-1
3	2	26	1	0	-1	-1	-1	-1	-1
3	2	27	1	0	-1	-1	-1	-1	-1
3	2	28	2	0	-1	-1	-1	-1	-1
3	2	29	1	1	-1	-1	-1	-1	-1
3	2	30	2	1	-1	-1	-1	-1	-1
3	2	31	1	0	-1	-1	-1	-1	-1
3	2	32	2	1	-1	-1	-1	-1	-1
3	2	33	2	0	-1	-1	-1	-1	-1
3	2	34	1	0	-1	-1	-1	-1	-1
3	2	35	2	0	-1	-1	-1	-1	-1
3	2	36	1	0	-1	-1	-1	-1	-1
3	2	37	2	0	-1	-1	-1	-1	-1
3	2	38	1	0	-1	-1	-1	-1	-1
3	2	39	1	0	-1	-1	-1	-1	-1
3	2	40	2	1	-1	-1	-1	-1	-1
3	2	41	1	0	-1	-1	-1	-1	-1
3	2	42	1	1	-1	-1	-1	-1	-1
3	2	43	2	0	-1	-1	-1	-1	-1
3	2	44	2	0	-1	-1	-1	-1	-1
3	2	45	1	0	-1	-1	-1	-1	-1
3	2	46	2	0	-1	-1	-1	-1	-1
3	2	47	2	0	-1	-1	-1	-1	-1
3	2	48	2	0	-1	-1	-1	-1	-1
3	2	49	2	0	-1	-1	-1	-1	-1
3	2	50	2	1	-1	-1	-1	-1	-1
3	2	51	1	0	-1	-1	-1	-1	-1
3	2	52	1	1	-1	-1	-1	-1	-1
3	2	53	1	0	-1	-1	-1	-1	-1
3	2	54	2	0	-1	-1	-1	-1	-1
3	2	55	1	1	-1	-1	-1	-1	-1
3	2	56	2	0	-1	-1	-1	-1	-1
3	2	57	2	0	-1	-1	-1	-1	-1
3	2	58	1	0	-1	-1	-1	-1	-1
3	2	59	1	0	-1	-1	-1	-1	-1
3	2	60	1	0	-1	-1	-1	-1	-1
3	2	61	2	0	-1	-1	-1	-1	-1
3	2	62	1	1	-1	-1	-1	-1	-1
3	2	63	2	1	-1	-1	-1	-1	-1
4	0	0	1	0	2	1	380	0	0
4	0	1	1	1	0	1	609	0	250
4	0	2	1	0	2	1	1021	0	0
4	0	3	1	1	2	0	0	0	200
4	0	4	1	1	2	0	0	0	250
4	0	5	1	1	2	0	0	0	300
4	0	6	2	0	2	2	520	0	0
4	0	7	2	1	2	0	0	0	350
4	0	8	1	0	2	1	561	0	0
4	0	9	1	0	2	1	942	0	0
4	0	10	2	0	2	2	771	0	0
4	0	11	1	0	2	1	976	0	0
4	0	12	1	0	2	1	924	0	0
4	0	13	1	0	2	1	737	0	0
4	0	14	2	1	2	0	0	0	400
4	0	15	1	0	2	1	698	0	0
4	0	16	1	0	2	1	855	0	0
4	0	17	1	1	2	0	0	0	450
4	0	18	2	0	2	2	560	0	0
4	0	19	1	0	2	1	1029	0	0
4	0	20	2	0	2	2	658	8	0
4	0	21	2	0	2	2	847	8	0
4	0	22	1	0	2	1	883	0	0
4	0	23	1	0	2	1	776	0	0
4	0	24	2	0	2	2	941	0	0
4	0	25	2	0	2	2	793	0	0
4	0	26	2	1	2	0	0	0	500
4	0	27	1	0	2	1	579	0	0
4	0	28	2	0	2	2	695	8	0
4	0	29	1	0	2	1	716	0	0
4	0	30	2	0	2	2	953	0	0
4	0	31	2	1	2	0	0	0	550
4	0	32	2	0	2	2	658	0	0
4	0	33	1	0	2	1	583	0	0
4	0	34	2	0	2	2	891	0	0
4	0	35	1	0	2	1	904	0	0
4	0	36	2	0	2	2	709	0	0
4	0	37	1	0	2	1	577	0	0
4	0	38	2	1	0	2	734	0	600
4	0	39	1	0	2	1	955	0	0
4	0	40	1	0	2	1	1135	0	0
4	0	41	1	0	2	1	692	0	0
4	0	42	1	1	2	0	0	0	550
4	0	43	2	0	2	2	550	0	0
4	0	44	2	0	2	2	874	0	0
4	0	45	2	0	2	2	727	0	0
4	0	46	2	0	2	2	532	0	0
4	0	47	2	0	2	2	736	0	0
4	0	48	1	0	2	1	821	0	0
4	0	49	2	0	2	2	690	0	0
4	0	50	2	0	2	2	982	0	0
4	0	51	1	1	0	1	723	0	600
4	0	52	2	0	2	2	688	0	0
4	0	53	2	1	2	0	0	0	550
4	0	54	2	0	2	2	1033	0	0
4	0	55	1	1	2	0	0	0	600
4	0	56	2	1	2	0	0	0	650
4	0	57	1	0	0	0	0	0	0
4	0	58	2	0	2	2	948	0	0
4	0	59	2	0	2	2	761	0	0
4	0	60	1	0	2	1	733	0	0
4	0	61	2	0	2	2	978	0	0
4	0	62	1	0	2	1	839	-12	0
4	0	63	2	1	2	0	0	0	700
4	1	0	1	0	2	1	663	8	0
4	1	1	1	1	0	1	740	0	750
4	1	2	1	0	2	1	968	0	0
4	1	3	2	0	2	2	1245	0	0
4	1	4	2	1	0	2	770	0	700
4	1	5	1	0	2	1	382	0	0
4	1	6	2	0	2	2	915	0	0
4	1	7	1	0	2	1	1216	0	0
4	1	8	1	0	2	1	644	0	0
4	1	9	2	0	2	2	761	0	0
4	1	10	2	0	2	2	638	9	0
4	1	11	2	0	2	2	666	8	0
4	1	12	1	0	2	1	679	8	0
4	1	13	1	1	2	0	0	0	650
4	1	14	2	0	2	2	625	0	0
4	1	15	1	0	2	1	477	0	0
4	1	16	2	0	2	2	570	0	0
4	1	17	1	0	2	1	847	0	0
4	1	18	2	0	2	2	1003	0	0
4	1	19	1	1	0	1	992	0	700
4	1	20	1	0	0	0	0	0	0
4	1	21	2	1	2	0	0	0	650
4	1	22	1	0	2	1	878	0	0
4	1	23	2	0	2	2	1051	0	0
4	1	24	2	0	2	2	983	0	0
4	1	25	2	0	2	2	756	0	0
4	1	26	2	0	2	2	857	0	0
4	1	27	2	0	2	2	814	0	0
4	1	28	1	0	2	1	850	0	0
4	1	29	2	1	0	2	831	0	700
4	1	30	1	1	0	1	732	0	650
4	1	31	1	0	0	0	0	0	0
4	1	32	1	1	0	1	613	0	600
4	1	33	1	1	0	1	634	0	550
4	1	34	1	0	0	0	0	0	0
4	1	35	2	0	2	2	587	0	0
4	1	36	2	0	2	2	712	0	0
4	1	37	2	0	2	2	980	0	0
4	1	38	2	0	2	2	777	0	0
4	1	39	1	0	2	1	1030	0	0
4	1	40	1	0	2	1	730	0	0
4	1	41	1	0	2	1	911	0	0
4	1	42	2	0	2	2	700	0	0
4	1	43	2	0	2	2	689	0	0
4	1	44	2	0	2	2	981	8	0
4	1	45	1	0	2	1	618	8	0
4	1	46	1	0	2	1	631	0	0
4	1	47	1	0	2	1	699	8	0
4	1	48	2	0	2	2	960	0	0
4	1	49	1	0	2	1	813	0	0
4	1	50	2	1	0	2	625	0	500
4	1	51	2	1	2	0	0	0	450
4	1	52	1	0	2	1	803	0	0
4	1	53	2	1	2	0	0	0	500
4	1	54	2	0	2	2	996	0	0
4	1	55	1	0	2	1	905	0	0
4	1	56	1	1	2	0	0	0	550
4	1	57	1	0	2	1	730	0	0
4	1	58	2	0	2	2	935	-9	0
4	1	59	1	1	0	1	884	0	600
4	1	60	2	0	2	2	1048	0	0
4	1	61	2	1	2	0	0	0	550
4	1	62	1	0	2	1	1002	0	0
4	1	63	2	1	2	0	0	0	600
4	2	0	1	0	2	1	717	0	0
4	2	1	2	0	0	0	0	0	0
4	2	2	1	0	2	1	758	0	0
4	2	3	2	0	2	2	627	0	0
4	2	4	1	0	2	1	679	0	0
4	2	5	1	0	2	1	732	0	0
4	2	6	2	1	2	0	0	0	650
4	2	7	2	0	0	1	861	0	0
4	2	8	2	1	0	2	842	0	700
4	2	9	1	0	2	1	975	0	0
4	2	10	1	1	0	1	675	0	650
4	2	11	2	1	0	2	536	0	600
4	2	12	2	0	2	2	765	0	0
4	2	13	2	0	2	2	753	0	0
4	2	14	1	1	0	1	590	0	550
4	2	15	2	1	0	2	515	0	500
4	2	16	2	0	2	2	1231	0	0
4	2	17	2	0	2	2	876	0	0
4	2	18	1	0	2	1	817	0	0
4	2	19	2	1	0	2	606	0	450
4	2	20	1	0	2	1	1138	0	0
4	2	21	1	1	2	0	0	0	400
4	2	22	1	1	2	0	0	0	450
4	2	23	2	0	2	2	792	0	0
4	2	24	1	0	2	1	981	0	0
4	2	25	1	1	2	0	0	0	500
4	2	26	2	0	2	2	1230	0	0
4	2	27	1	0	2	1	667	0	0
4	2	28	1	0	2	1	1024	0	0
4	2	29	2	0	2	2	893	0	0
4	2	30	2	1	2	0	0	0	550
4	2	31	1	0	2	1	958	0	0
4	2	32	2	0	2	2	595	0	0
4	2	33	2	0	2	2	791	0	0
4	2	34	1	0	2	1	660	0	0
4	2	35	2	0	2	2	937	0	0
4	2	36	2	0	2	2	741	0	0
4	2	37	1	0	2	1	594	8	0
4	2	38	1	0	2	1	631	0	0
4	2	39	1	0	2	1	795	0	0
4	2	40	2	0	2	2	1104	-12	0
4	2	41	2	0	2	2	901	0	0
4	2	42	1	0	2	1	977	0	0
4	2	43	1	1	2	0	0	0	600
4	2	44	2	0	2	2	771	8	0
4	2	45	1	1	2	0	0	0	650
4	2	46	1	0	2	1	564	0	0
4	2	47	2	0	2	2	561	0	0
4	2	48	2	0	2	2	1022	8	0
4	2	49	2	0	0	0	0	0	0
4	2	50	1	0	2	1	535	0	0
4	2	51	2	0	2	2	692	0	0
4	2	52	2	0	2	2	584	0	0
4	2	53	1	0	2	1	693	8	0
4	2	54	2	0	2	2	714	0	0
4	2	55	1	1	0	1	590	0	700
4	2	56	1	0	2	1	715	0	0
4	2	57	1	0	2	1	584	0	0
4	2	58	2	0	2	2	1005	0	0
4	2	59	1	0	2	1	593	0	0
4	2	60	2	1	0	2	670	0	650
4	2	61	1	0	2	1	619	0	0
4	2	62	2	1	2	0	0	0	600
4	2	63	1	0	2	1	708	0	0
5	0	0	2	0	2	2	451	0	0
5	0	1	2	0	2	2	391	0	0
5	0	2	2	1	0	2	420	0	50
5	0	3	2	0	2	2	385	0	0
5	0	4	2	0	2	2	397	0	0
5	0	5	2	0	2	2	378	0	0
5	0	6	2	0	2	2	327	0	0
5	0	7	2	1	0	2	323	0	50
5	0	8	2	0	2	2	352	0	0
5	0	9	1	0	2	1	525	0	0
5	0	10	1	0	2	1	362	0	0
5	0	11	1	0	2	1	334	0	0
5	0	12	1	0	2	1	395	0	0
5	0	13	1	0	2	1	392	0	0
5	0	14	2	1	0	2	484	0	50
5	0	15	1	0	2	1	473	0	0
5	0	16	1	0	2	1	494	0	0
5	0	17	1	0	2	1	498	0	0
5	0	18	2	0	2	2	343	0	0
5	0	19	2	0	2	2	380	0	0
5	0	20	2	0	2	2	384	0	0
5	0	21	1	1	0	1	365	0	50
5	0	22	1	0	2	1	442	0	0
5	0	23	1	0	2	1	439	0	0
5	0	24	1	0	2	1	371	0	0
5	0	25	2	0	2	2	392	0	0
5	0	26	2	1	0	2	413	0	50
5	0	27	1	1	0	1	409	0	50
5	0	28	1	0	2	1	446	0	0
5	0	29	2	0	2	2	355	-11	0
5	0	30	2	0	2	2	463	0	0
5	0	31	2	0	2	2	396	0	0
5	0	32	2	0	2	2	465	0	0
5	0	33	1	0	2	1	453	0	0
5	0	34	2	0	2	2	402	0	0
5	0	35	2	0	2	2	423	0	0
5	0	36	2	0	2	2	371	0	0
5	0	37	1	0	2	1	400	0	0
5	0	38	1	0	2	1	445	0	0
5	0	39	1	1	0	1	450	0	50
5	0	40	2	0	2	2	446	0	0
5	0	41	2	1	0	2	387	0	50
5	0	42	1	1	0	1	296	0	50
5	0	43	2	0	2	2	356	0	0
5	0	44	1	1	0	1	409	0	50
5	0	45	1	1	0	1	478	0	50
5	0	46	1	0	2	1	474	8	0
5	0	47	2	0	2	2	399	0	0
5	0	48	1	1	0	1	484	0	50
5	0	49	1	0	2	1	456	0	0
5	0	50	1	0	2	1	437	0	0
5	0	51	1	1	0	1	402	0	50
5	0	52	2	1	0	2	463	0	50
5	0	53	1	0	2	1	459	0	0
5	0	54	1	0	2	1	400	0	0
5	0	55	1	0	2	1	365	0	0
5	0	56	2	0	2	2	473	0	0
5	0	57	2	0	2	2	422	0	0
5	0	58	1	0	2	1	443	0	0
5	0	59	1	0	2	1	375	0	0
5	0	60	2	1	0	2	380	0	50
5	0	61	2	1	0	2	449	0	50
5	0	62	2	0	2	2	445	0	0
5	0	63	1	0	2	1	354	0	0
5	1	0	1	0	2	1	467	0	0
5	1	1	2	0	2	2	416	0	0
5	1	2	2	1	0	2	436	0	50
5	1	3	1	0	2	1	433	0	0
5	1	4	1	1	0	1	446	0	50
5	1	5	2	0	2	2	482	0	0
5	1	6	1	0	2	1	455	0	0
5	1	7	1	0	2	1	500	0	0
5	1	8	2	0	2	2	361	0	0
5	1	9	1	1	0	1	381	0	50
5	1	10	1	0	2	1	458	0	0
5	1	11	1	0	2	1	391	0	0
5	1	12	1	1	0	1	403	0	50
5	1	13	1	0	2	1	392	0	0
5	1	14	2	0	2	2	389	0	0
5	1	15	1	0	2	1	457	0	0
5	1	16	1	0	2	1	430	0	0
5	1	17	2	0	2	2	427	0	0
5	1	18	2	0	2	2	399	0	0
5	1	19	1	0	2	1	476	0	0
5	1	20	2	0	2	2	457	0	0
5	1	21	1	0	2	1	437	0	0
5	1	22	2	0	2	2	426	0	0
5	1	23	2	0	2	2	399	0	0
5	1	24	2	0	2	2	356	0	0
5	1	25	2	1	0	2	472	0	50
5	1	26	2	0	2	2	501	0	0
5	1	27	2	0	2	2	610	0	0
5	1	28	1	1	0	1	494	0	50
5	1	29	1	1	0	1	443	0	50
5	1	30	1	0	2	1	384	0	0
5	1	31	2	0	2	2	356	0	0
5	1	32	2	0	2	2	457	0	0
5	1	33	2	0	2	2	430	0	0
5	1	34	2	1	0	2	490	0	50
5	1	35	2	0	2	2	447	0	0
5	1	36	1	0	2	1	468	0	0
5	1	37	1	0	2	1	385	0	0
5	1	38	1	0	2	1	405	0	0
5	1	39	1	0	2	1	418	0	0
5	1	40	2	0	2	2	479	0	0
5	1	41	1	1	0	1	515	0	50
5	1	42	1	0	2	1	448	0	0
5	1	43	2	1	0	2	341	0	50
5	1	44	2	0	2	2	353	0	0
5	1	45	2	0	2	2	414	0	0
5	1	46	1	0	2	1	483	0	0
5	1	47	1	0	2	1	399	0	0
5	1	48	1	0	2	1	404	0	0
5	1	49	2	0	2	2	449	0	0
5	1	50	2	1	0	2	342	0	50
5	1	51	1	0	2	1	530	0	0
5	1	52	2	1	0	2	455	0	50
5	1	53	2	0	2	2	436	0	0
5	1	54	1	0	2	1	424	0	0
5	1	55	1	1	0	1	405	0	50
5	1	56	2	0	2	2	450	0	0
5	1	57	2	1	0	2	398	0	50
5	1	58	1	0	2	1	443	0	0
5	1	59	1	0	2	1	400	0	0
5	1	60	1	1	0	1	412	0	50
5	1	61	2	0	2	2	449	0	0
5	1	62	2	0	2	2	366	0	0
5	1	63	2	1	0	2	402	0	50
5	2	0	2	0	2	2	420	0	0
5	2	1	1	0	2	1	433	0	0
5	2	2	2	1	0	2	421	0	50
5	2	3	2	0	2	2	418	0	0
5	2	4	2	0	2	2	415	0	0
5	2	5	1	0	2	1	387	0	0
5	2	6	2	0	2	2	424	0	0
5	2	7	1	1	0	1	469	0	50
5	2	8	2	0	2	2	361	0	0
5	2	9	1	0	2	1	486	0	0
5	2	10	2	1	0	2	459	0	50
5	2	11	2	1	0	2	440	0	50
5	2	12	1	0	2	1	428	0	0
5	2	13	2	0	2	2	417	0	0
5	2	14	1	0	2	1	486	-12	0
5	2	15	2	0	2	2	442	0	0
5	2	16	2	1	0	2	487	0	50
5	2	17	1	1	0	1	388	0	50
5	2	18	2	0	2	2	488	0	0
5	2	19	1	1	0	1	461	0	50
5	2	20	2	0	2	2	386	0	0
5	2	21	2	0	2	2	430	0	0
5	2	22	2	0	2	2	491	0	0
5	2	23	1	0	2	1	376	0	0
5	2	24	1	0	2	1	380	0	0
5	2	25	1	0	2	1	385	0	0
5	2	26	1	1	0	1	414	0	50
5	2	27	2	0	2	2	395	0	0
5	2	28	2	1	0	2	431	0	50
5	2	29	2	0	2	2	508	0	0
5	2	30	2	0	2	2	369	0	0
5	2	31	1	0	2	1	373	0	0
5	2	32	1	0	2	1	450	0	0
5	2	33	2	0	2	2	479	0	0
5	2	34	2	1	0	2	491	0	50
5	2	35	2	0	2	2	440	0	0
5	2	36	1	0	2	1	469	0	0
5	2	37	1	1	0	1	425	0	50
5	2	38	2	0	2	2	390	0	0
5	2	39	2	0	2	2	451	0	0
5	2	40	1	0	2	1	488	0	0
5	2	41	1	0	2	1	388	0	0
5	2	42	2	1	0	2	449	0	50
5	2	43	1	1	0	1	526	0	50
5	2	44	1	1	0	1	370	0	50
5	2	45	1	0	2	1	383	0	0
5	2	46	1	1	0	1	348	0	50
5	2	47	2	1	0	2	504	0	50
5	2	48	1	0	2	1	365	0	0
5	2	49	1	0	2	1	426	0	0
5	2	50	2	0	2	2	366	0	0
5	2	51	1	0	2	1	467	0	0
5	2	52	1	0	2	1	392	0	0
5	2	53	2	0	2	2	397	0	0
5	2	54	2	0	2	2	441	0	0
5	2	55	1	0	2	1	406	0	0
5	2	56	1	0	2	1	443	0	0
5	2	57	1	0	2	1	455	0	0
5	2	58	2	0	2	2	412	0	0
5	2	59	2	0	2	2	425	0	0
5	2	60	1	0	2	1	469	0	0
5	2	61	2	0	2	2	466	0	0
5	2	62	1	0	2	1	399	0	0
5	2	63	1	0	2	1	387	0	0
6	0	0	1	0	2	1	530	0	0
6	0	1	2	0	2	2	343	0	0
6	0	2	1	1	0	1	427	0	300
6	0	3	1	0	2	1	496	0	0
6	0	4	1	0	2	1	461	0	0
6	0	5	2	1	0	2	433	0	250
6	0	6	1	1	2	0	0	0	200
6	0	7	1	1	0	1	427	0	250
6	0	8	2	1	0	2	487	0	200
6	0	9	1	0	2	1	492	0	0
6	0	10	2	1	0	2	673	0	150
6	0	11	1	0	0	0	0	0	0
6	0	12	2	1	0	2	466	0	100
6	0	13	1	0	0	0	0	0	0
6	0	14	2	0	0	0	0	0	0
6	0	15	1	0	2	1	576	0	0
6	0	16	2	0	2	2	621	-10	0
6	0	17	1	0	0	0	0	0	0
6	0	18	1	0	0	0	0	0	0
6	0	19	2	0	0	0	0	0	0
6	0	20	1	1	0	1	448	0	50
6	0	21	1	0	0	0	0	0	0
6	0	22	2	0	0	0	0	0	0
6	0	23	2	0	2	2	502	0	0
6	0	24	2	1	0	2	579	0	50
6	0	25	1	1	0	1	407	0	50
6	0	26	1	0	0	0	0	0	0
6	0	27	1	0	0	0	0	0	0
6	0	28	1	0	0	0	0	0	0
6	0	29	1	1	0	1	490	0	50
6	0	30	2	0	0	0	0	0	0
6	0	31	1	1	0	1	459	9	50
6	0	32	2	1	0	2	384	0	50
6	0	33	1	0	0	0	0	0	0
6	0	34	2	0	0	0	0	0	0
6	0	35	2	0	0	0	0	0	0
6	0	36	1	0	0	0	0	0	0
6	0	37	1	0	0	0	0	0	0
6	0	38	2	0	0	0	0	0	0
6	0	39	1	0	0	0	0	0	0
6	0	40	2	0	0	0	0	0	0
6	0	41	1	0	0	0	0	0	0
6	0	42	2	1	0	2	511	0	50
6	0	43	1	0	0	0	0	0	0
6	0	44	1	0	0	0	0	0	0
6	0	45	2	0	0	0	0	0	0
6	0	46	1	0	0	0	0	0	0
6	0	47	1	0	0	0	0	0	0
6	0	48	2	0	0	0	0	0	0
6	0	49	2	0	0	0	0	0	0
6	0	50	2	0	0	0	0	0	0
6	0	51	2	1	0	2	569	0	50
6	0	52	2	0	0	0	0	0	0
6	0	53	1	0	0	0	0	0	0
6	0	54	1	1	0	1	479	0	50
6	0	55	2	0	0	0	0	0	0
6	0	56	2	0	0	0	0	0	0
6	0	57	1	0	0	0	0	0	0
6	0	58	2	0	0	0	0	0	0
6	0	59	2	0	0	0	0	0	0
6	0	60	2	0	0	0	0	0	0
6	0	61	2	0	0	0	0	0	0
6	0	62	2	0	0	0	0	0	0
6	0	63	2	0	0	0	0	0	0
6	1	0	1	0	2	1	526	0	0
6	1	1	1	1	0	1	594	0	50
6	1	2	1	0	2	1	455	0	0
6	1	3	2	0	2	2	428	0	0
6	1	4	2	0	2	2	360	0	0
6	1	5	2	1	0	2	469	0	50
6	1	6	1	1	0	1	618	0	50
6	1	7	1	0	2	1	446	0	0
6	1	8	1	0	2	1	387	0	0
6	1	9	2	0	2	2	488	0	0
6	1	10	2	0	2	2	469	0	0
6	1	11	2	0	2	2	425	0	0
6	1	12	2	0	2	2	454	0	0
6	1	13	1	0	2	1	435	8	0
6	1	14	1	0	2	1	591	0	0
6	1	15	2	0	2	2	444	0	0
6	1	16	1	0	2	1	433	8	0
6	1	17	1	1	2	0	0	0	50
6	1	18	2	1	0	2	538	0	100
6	1	19	2	0	2	2	343	0	0
6	1	20	1	1	2	0	0	0	50
6	1	21	2	1	2	0	0	0	100
6	1	22	2	0	2	2	437	0	0
6	1	23	2	0	2	2	393	0	0
6	1	24	2	0	2	2	486	0	0
6	1	25	2	0	2	2	435	0	0
6	1	26	2	0	2	2	384	0	0
6	1	27	2	0	2	2	372	0	0
6	1	28	1	0	2	1	473	0	0
6	1	29	2	1	0	2	622	0	150
6	1	30	2	1	2	0	0	0	100
6	1	31	1	0	2	1	471	0	0
6	1	32	1	0	2	1	612	0	0
6	1	33	2	0	2	2	424	0	0
6	1	34	2	0	2	2	365	0	0
6	1	35	1	0	2	1	586	0	0
6	1	36	1	1	0	1	1230	0	150
6	1	37	2	0	2	2	459	0	0
6	1	38	1	1	0	1	560	0	100
6	1	39	1	1	0	1	461	0	50
6	1	40	2	0	2	2	393	0	0
6	1	41	2	1	2	0	0	0	50
6	1	42	2	0	2	2	419	0	0
6	1	43	1	0	2	1	447	0	0
6	1	44	1	0	2	1	492	0	0
6	1	45	1	0	2	1	545	0	0
6	1	46	1	0	2	1	413	0	0
6	1	47	1	0	2	1	362	0	0
6	1	48	2	0	2	2	495	0	0
6	1	49	1	1	2	0	0	0	100
6	1	50	2	1	2	0	0	0	150
6	1	51	1	0	2	1	437	0	0
6	1	52	1	0	2	1	377	-8	0
6	1	53	2	0	2	2	462	0	0
6	1	54	2	0	2	2	587	0	0
6	1	55	1	0	2	1	424	8	0
6	1	56	1	0	2	1	404	0	0
6	1	57	1	0	2	1	385	0	0
6	1	58	2	0	2	2	478	0	0
6	1	59	1	0	2	1	450	0	0
6	1	60	2	1	0	2	423	0	200
6	1	61	1	0	2	1	404	0	0
6	1	62	2	0	2	2	384	0	0
6	1	63	1	0	2	1	421	0	0
6	2	0	2	0	2	2	520	0	0
6	2	1	2	0	2	2	493	0	0
6	2	2	2	0	2	2	353	0	0
6	2	3	2	0	2	2	350	0	0
6	2	4	2	0	2	2	379	0	0
6	2	5	1	0	2	1	375	0	0
6	2	6	2	0	2	2	788	0	0
6	2	7	2	0	2	2	409	0	0
6	2	8	1	0	2	1	381	0	0
6	2	9	1	0	2	1	538	0	0
6	2	10	1	0	2	1	447	0	0
6	2	11	2	0	2	2	419	0	0
6	2	12	2	1	2	0	0	0	150
6	2	13	2	0	2	2	341	0	0
6	2	14	1	0	2	1	466	0	0
6	2	15	2	0	2	2	702	0	0
6	2	16	2	0	2	2	411	0	0
6	2	17	2	1	2	0	0	0	200
6	2	18	2	1	0	2	428	0	250
6	2	19	1	0	2	1	449	0	0
6	2	20	2	0	2	2	422	0	0
6	2	21	1	0	2	1	578	0	0
6	2	22	2	1	0	2	367	0	200
6	2	23	2	0	2	2	508	0	0
6	2	24	1	0	2	1	440	0	0
6	2	25	2	0	2	2	493	0	0
6	2	26	1	0	2	1	530	0	0
6	2	27	1	1	2	0	0	0	150
6	2	28	1	0	2	1	467	0	0
6	2	29	1	0	2	1	496	0	0
6	2	30	1	0	2	1	493	0	0
6	2	31	1	0	2	1	497	0	0
6	2	32	2	1	2	0	0	0	200
6	2	33	1	1	0	1	411	0	250
6	2	34	1	1	2	0	0	0	200
6	2	35	1	0	2	1	500	0	0
6	2	36	1	0	2	1	473	0	0
6	2	37	1	0	2	1	461	0	0
6	2	38	1	0	2	1	522	0	0
6	2	39	1	0	2	1	415	0	0
6	2	40	1	1	0	1	435	0	250
6	2	41	2	0	2	2	504	0	0
6	2	42	2	1	0	2	381	0	200
6	2	43	2	0	2	2	522	-8	0
6	2	44	1	0	2	1	582	0	0
6	2	45	1	0	2	1	419	0	0
6	2	46	1	1	2	0	0	0	150
6	2	47	2	0	2	2	404	0	0
6	2	48	1	0	2	1	409	0	0
6	2	49	1	1	2	0	0	0	200
6	2	50	2	0	2	2	402	0	0
6	2	51	1	1	2	0	0	0	250
6	2	52	2	1	0	2	404	0	300
6	2	53	1	0	2	1	480	0	0
6	2	54	2	0	2	2	357	0	0
6	2	55	2	0	2	2	466	0	0
6	2	56	2	0	2	2	375	0	0
6	2	57	2	0	2	2	443	0	0
6	2	58	1	0	2	1	520	0	0
6	2	59	2	0	2	2	437	8	0
6	2	60	2	1	0	2	393	0	250
6	2	61	1	1	2	0	0	0	200
6	2	62	1	0	2	1	547	0	0
6	2	63	2	0	2	2	439	0	0
7	0	0	2	0	2	2	396	0	0
7	0	1	2	1	0	2	409	0	50
7	0	2	1	1	0	1	469	0	50
7	0	3	2	0	2	2	378	0	0
7	0	4	2	0	2	2	391	0	0
7	0	5	1	0	2	1	475	0	0
7	0	6	2	0	2	2	368	0	0
7	0	7	1	0	2	1	357	0	0
7	0	8	2	0	2	2	377	0	0
7	0	9	2	0	2	2	438	0	0
7	0	10	1	0	2	1	603	0	0
7	0	11	1	0	2	1	455	0	0
7	0	12	2	0	2	2	508	0	0
7	0	13	2	0	2	2	393	0	0
7	0	14	1	0	2	1	446	0	0
7	0	15	1	1	0	1	578	0	50
7	0	16	1	1	0	1	463	0	50
7	0	17	1	0	2	1	428	0	0
7	0	18	2	1	0	2	520	0	50
7	0	19	1	0	2	1	773	0	0
7	0	20	2	0	2	2	626	0	0
7	0	21	2	0	2	2	526	0	0
7	0	22	2	1	0	2	451	0	50
7	0	23	2	1	0	2	408	0	50
7	0	24	1	0	2	1	452	0	0
7	0	25	2	1	0	2	521	0	50
7	0	26	2	0	2	2	430	0	0
7	0	27	2	0	2	2	403	0	0
7	0	28	1	0	2	1	439	0	0
7	0	29	1	1	0	1	500	0	50
7	0	30	1	0	2	1	329	0	0
7	0	31	2	0	2	2	509	0	0
7	0	32	2	1	0	2	498	0	50
7	0	33	2	0	2	2	415	0	0
7	0	34	1	0	2	1	411	0	0
7	0	35	1	0	2	1	336	0	0
7	0	36	2	0	2	2	493	0	0
7	0	37	2	0	2	2	457	0	0
7	0	38	2	0	2	2	462	0	0
7	0	39	1	0	2	1	555	0	0
7	0	40	2	0	2	2	503	0	0
7	0	41	2	0	2	2	412	0	0
7	0	42	2	0	2	2	401	0	0
7	0	43	2	1	0	2	438	0	50
7	0	44	1	0	2	1	442	0	0
7	0	45	1	1	0	1	447	0	50
7	0	46	2	1	0	2	412	0	50
7	0	47	1	0	2	1	392	0	0
7	0	48	1	0	2	1	293	0	0
7	0	49	2	0	2	2	514	0	0
7	0	50	1	0	2	1	478	0	0
7	0	51	1	0	2	1	515	0	0
7	0	52	1	0	2	1	520	0	0
7	0	53	1	0	2	1	452	0	0
7	0	54	2	0	2	2	465	0	0
7	0	55	1	0	2	1	686	0	0
7	0	56	2	0	2	2	682	0	0
7	0	57	2	0	2	2	399	0	0
7	0	58	1	1	0	1	564	0	50
7	0	59	1	0	2	1	777	0	0
7	0	60	1	1	0	1	709	0	50
7	0	61	1	1	0	1	682	0	50
7	0	62	1	0	2	1	623	0	0
7	0	63	1	0	2	1	459	0	0
7	1	0	1	0	2	1	796	0	0
7	1	1	1	1	2	0	0	0	50
7	1	2	2	1	0	2	518	0	100
7	1	3	1	0	2	1	778	0	0
7	1	4	2	1	2	0	0	0	50
7	1	5	2	0	2	2	516	0	0
7	1	6	2	0	2	2	1048	0	0
7	1	7	2	0	2	2	445	0	0
7	1	8	1	0	2	1	690	0	0
7	1	9	1	0	2	1	638	0	0
7	1	10	2	0	2	2	547	0	0
7	1	11	2	0	2	2	640	0	0
7	1	12	2	1	2	0	0	0	100
7	1	13	1	1	2	0	0	0	150
7	1	14	2	0	2	2	414	0	0
7	1	15	2	1	0	2	427	0	200
7	1	16	1	0	2	1	591	0	0
7	1	17	1	0	2	1	828	0	0
7	1	18	2	0	2	2	465	0	0
7	1	19	1	1	2	0	0	0	150
7	1	20	2	1	0	2	394	0	200
7	1	21	2	0	2	2	559	0	0
7	1	22	2	0	2	2	955	0	0
7	1	23	1	1	2	0	0	0	150
7	1	24	1	0	2	1	637	0	0
7	1	25	1	0	2	1	489	0	0
7	1	26	1	0	2	1	526	0	0
7	1	27	1	0	2	1	595	0	0
7	1	28	2	0	2	2	615	0	0
7	1	29	2	0	2	2	452	0	0
7	1	30	2	1	2	0	0	0	200
7	1	31	1	0	2	1	542	0	0
7	1	32	2	0	2	2	530	0	0
7	1	33	1	0	2	1	511	0	0
7	1	34	1	0	2	1	588	0	0
7	1	35	2	1	2	0	0	0	250
7	1	36	1	0	2	1	525	0	0
7	1	37	2	0	2	2	426	0	0
7	1	38	2	0	2	2	494	0	0
7	1	39	1	0	2	1	683	0	0
7	1	40	2	0	2	2	520	0	0
7	1	41	2	0	2	2	532	0	0
7	1	42	1	0	2	1	441	0	0
7	1	43	1	0	2	1	502	0	0
7	1	44	1	1	0	1	475	0	300
7	1	45	2	0	2	2	575	0	0
7	1	46	2	0	2	2	548	0	0
7	1	47	2	0	2	2	545	0	0
7	1	48	1	0	2	1	725	0	0
7	1	49	1	0	2	1	674	0	0
7	1	50	1	0	2	1	751	0	0
7	1	51	2	1	2	0	0	0	250
7	1	52	1	1	2	0	0	0	300
7	1	53	2	0	2	2	517	0	0
7	1	54	2	0	2	2	553	0	0
7	1	55	1	0	2	1	510	0	0
7	1	56	2	0	2	2	507	0	0
7	1	57	1	0	2	1	527	0	0
7	1	58	2	0	2	2	476	0	0
7	1	59	1	0	2	1	761	0	0
7	1	60	2	0	2	2	582	0	0
7	1	61	1	1	0	1	490	0	350
7	1	62	1	0	2	1	935	0	0
7	1	63	1	1	2	0	0	0	300
7	2	0	2	0	2	2	515	0	0
7	2	1	1	0	2	1	568	0	0
7	2	2	2	1	2	0	0	0	350
7	2	3	2	0	2	2	577	0	0
7	2	4	1	1	0	1	606	0	400
7	2	5	1	0	2	1	571	0	0
7	2	6	1	0	2	1	751	0	0
7	2	7	2	1	2	0	0	0	350
7	2	8	1	0	2	1	593	0	0
7	2	9	1	0	2	1	637	0	0
7	2	10	1	0	2	1	706	0	0
7	2	11	1	0	2	1	631	0	0
7	2	12	1	1	2	0	0	0	400
7	2	13	1	1	2	0	0	0	450
7	2	14	1	1	2	0	0	0	500
7	2	15	2	1	0	2	729	0	550
7	2	16	1	0	2	1	622	0	0
7	2	17	2	1	2	0	0	0	500
7	2	18	2	0	2	2	880	0	0
7	2	19	2	0	2	2	764	0	0
7	2	20	2	0	2	2	745	0	0
7	2	21	2	0	2	2	630	0	0
7	2	22	2	0	2	2	818	0	0
7	2	23	2	0	2	2	591	0	0
7	2	24	2	0	2	2	636	0	0
7	2	25	1	0	2	1	632	0	0
7	2	26	2	1	0	2	677	0	550
7	2	27	2	0	2	2	866	0	0
7	2	28	1	0	2	1	926	0	0
7	2	29	1	0	2	1	771	0	0
7	2	30	2	0	2	2	1008	0	0
7	2	31	1	0	2	1	1084	0	0
7	2	32	2	0	2	2	721	0	0
7	2	33	1	0	2	1	790	0	0
7	2	34	1	1	0	1	667	0	500
7	2	35	1	0	0	0	0	0	0
7	2	36	2	0	2	2	708	0	0
7	2	37	1	1	2	0	0	0	450
7	2	38	1	1	0	1	677	0	500
7	2	39	1	0	2	1	682	0	0
7	2	40	1	0	2	1	679	0	0
7	2	41	1	1	2	0	0	0	450
7	2	42	2	0	2	2	1208	0	0
7	2	43	1	0	2	1	965	0	0
7	2	44	2	1	2	0	0	0	500
7	2	45	1	0	2	1	990	0	0
7	2	46	2	1	2	0	0	0	550
7	2	47	2	0	2	2	1072	0	0
7	2	48	1	0	2	1	756	0	0
7	2	49	2	0	2	2	905	0	0
7	2	50	1	0	2	1	670	0	0
7	2	51	2	0	2	2	746	0	0
7	2	52	1	0	2	1	639	0	0
7	2	53	1	0	2	1	684	0	0
7	2	54	2	0	2	2	976	0	0
7	2	55	1	0	2	1	893	0	0
7	2	56	2	0	2	2	698	0	0
7	2	57	1	0	2	1	910	0	0
7	2	58	2	0	2	2	923	0	0
7	2	59	2	1	2	0	0	0	600
7	2	60	2	0	2	2	1116	0	0
7	2	61	2	0	2	2	785	0	0
7	2	62	2	0	2	2	670	0	0
7	2	63	2	0	2	2	635	0	0
8	0	0	1	0	2	1	426	0	0
8	0	1	2	0	2	2	471	8	0
8	0	2	1	0	2	1	500	0	0
8	0	3	2	0	2	2	528	0	0
8	0	4	1	1	2	0	0	0	200
8	0	5	1	0	2	1	538	0	0
8	0	6	2	0	2	2	622	0	0
8	0	7	1	0	2	1	579	0	0
8	0	8	2	1	2	0	0	0	250
8	0	9	1	1	0	1	476	0	300
8	0	10	2	0	2	2	633	0	0
8	0	11	2	0	2	2	638	0	0
8	0	12	2	0	2	2	515	0	0
8	0	13	1	0	2	1	663	0	0
8	0	14	2	0	2	2	548	0	0
8	0	15	2	0	2	2	568	0	0
8	0	16	1	0	2	1	549	0	0
8	0	17	1	0	2	1	602	0	0
8	0	18	1	1	2	0	0	0	250
8	0	19	1	0	2	1	731	0	0
8	0	20	1	0	2	1	568	0	0
8	0	21	1	0	2	1	541	0	0
8	0	22	1	1	2	0	0	0	300
8	0	23	2	0	2	2	494	0	0
8	0	24	1	0	2	1	691	0	0
8	0	25	2	0	2	2	519	0	0
8	0	26	2	1	0	2	484	8	350
8	0	27	2	0	2	2	705	0	0
8	0	28	2	0	2	2	622	0	0
8	0	29	1	0	2	1	866	0	0
8	0	30	2	0	2	2	623	8	0
8	0	31	2	0	2	2	556	0	0
8	0	32	2	1	2	0	0	0	300
8	0	33	2	1	0	2	469	0	350
8	0	34	2	0	2	2	618	0	0
8	0	35	2	1	0	2	526	0	300
8	0	36	2	0	2	2	851	0	0
8	0	37	2	0	2	2	856	0	0
8	0	38	1	0	2	1	788	0	0
8	0	39	2	0	2	2	657	0	0
8	0	40	1	0	2	1	662	0	0
8	0	41	1	0	2	1	667	0	0
8	0	42	1	1	0	1	471	0	250
8	0	43	2	1	2	0	0	0	200
8	0	44	2	0	2	2	697	0	0
8	0	45	2	0	2	2	589	0	0
8	0	46	1	0	2	1	682	8	0
8	0	47	2	1	2	0	0	0	250
8	0	48	2	0	2	2	683	0	0
8	0	49	1	1	2	0	0	0	300
8	0	50	1	0	2	1	837	0	0
8	0	51	1	0	2	1	657	0	0
8	0	52	2	0	2	2	670	0	0
8	0	53	2	0	2	2	915	8	0
8	0	54	1	0	2	1	775	0	0
8	0	55	1	0	2	1	660	0	0
8	0	56	1	1	2	0	0	0	350
8	0	57	1	1	2	0	0	0	400
8	0	58	2	0	2	2	906	0	0
8	0	59	2	1	2	0	0	0	450
8	0	60	1	0	2	1	868	0	0
8	0	61	1	0	2	1	784	0	0
8	0	62	1	0	2	1	821	0	0
8	0	63	1	0	2	1	522	0	0
8	1	0	1	1	0	1	565	0	500
8	1	1	2	0	2	2	874	0	0
8	1	2	2	0	2	2	719	0	0
8	1	3	1	0	2	1	451	0	0
8	1	4	1	0	2	1	608	0	0
8	1	5	1	0	2	1	605	0	0
8	1	6	2	0	2	2	625	0	0
8	1	7	2	1	0	2	582	0	450
8	1	8	2	0	2	2	811	0	0
8	1	9	2	0	2	2	671	0	0
8	1	10	2	1	2	0	0	0	400
8	1	11	1	0	2	1	585	0	0
8	1	12	1	0	2	1	629	0	0
8	1	13	2	1	2	0	0	0	450
8	1	14	1	0	2	1	823	0	0
8	1	15	2	0	2	2	827	0	0
8	1	16	2	1	2	0	0	0	500
8	1	17	1	1	2	0	0	0	550
8	1	18	1	0	2	1	1058	0	0
8	1	19	2	0	2	2	998	0	0
8	1	20	1	0	2	1	1123	0	0
8	1	21	2	1	0	2	768	0	600
8	1	22	1	0	2	1	1012	0	0
8	1	23	2	0	2	2	769	0	0
8	1	24	2	0	2	2	886	0	0
8	1	25	2	0	2	2	866	0	0
8	1	26	1	1	2	0	0	0	550
8	1	27	2	0	2	2	620	0	0
8	1	28	1	0	2	1	792	0	0
8	1	29	2	1	0	2	957	0	600
8	1	30	1	0	2	1	1130	0	0
8	1	31	1	0	2	1	983	0	0
8	1	32	1	0	2	1	451	0	0
8	1	33	2	1	2	0	0	0	550
8	1	34	1	0	2	1	917	0	0
8	1	35	2	0	2	2	1089	0	0
8	1	36	2	0	2	2	1006	0	0
8	1	37	1	0	2	1	963	0	0
8	1	38	1	0	2	1	991	0	0
8	1	39	2	1	2	0	0	0	600
8	1	40	2	0	2	2	1065	0	0
8	1	41	1	0	2	1	701	0	0
8	1	42	1	1	0	1	562	0	650
8	1	43	1	0	2	1	495	0	0
8	1	44	2	0	2	2	916	0	0
8	1	45	2	0	2	2	936	0	0
8	1	46	1	1	2	0	0	0	600
8	1	47	1	1	2	0	0	0	650
8	1	48	1	0	2	1	822	0	0
8	1	49	1	0	2	1	755	0	0
8	1	50	2	0	2	2	1008	0	0
8	1	51	1	1	2	0	0	0	700
8	1	52	2	0	2	2	1001	0	0
8	1	53	1	0	2	1	1094	0	0
8	1	54	2	0	2	2	658	0	0
8	1	55	2	0	2	2	927	0	0
8	1	56	2	0	2	2	884	0	0
8	1	57	2	0	2	2	848	0	0
8	1	58	1	0	2	1	973	0	0
8	1	59	1	0	2	1	706	0	0
8	1	60	1	0	2	1	751	0	0
8	1	61	2	0	2	2	979	8	0
8	1	62	1	1	0	1	896	0	750
8	1	63	2	0	2	2	1101	0	0
8	2	0	1	1	0	1	459	0	700
8	2	1	1	0	2	1	503	0	0
8	2	2	1	0	2	1	764	0	0
8	2	3	2	0	2	2	833	0	0
8	2	4	2	0	2	2	862	0	0
8	2	5	1	0	2	1	1090	0	0
8	2	6	1	1	0	1	831	0	650
8	2	7	1	0	2	1	1068	0	0
8	2	8	1	0	2	1	840	0	0
8	2	9	1	0	2	1	685	0	0
8	2	10	1	0	2	1	922	0	0
8	2	11	2	0	2	2	782	0	0
8	2	12	1	0	2	1	603	0	0
8	2	13	1	0	2	1	752	0	0
8	2	14	1	0	2	1	708	0	0
8	2	15	2	0	2	2	857	0	0
8	2	16	2	0	2	2	726	0	0
8	2	17	1	0	2	1	1010	0	0
8	2	18	1	1	2	0	0	0	600
8	2	19	2	0	2	2	820	0	0
8	2	20	1	0	2	1	721	0	0
8	2	21	2	0	2	2	773	0	0
8	2	22	1	0	2	1	1114	0	0
8	2	23	2	1	0	2	855	0	650
8	2	24	1	0	2	1	859	0	0
8	2	25	2	1	0	2	944	0	600
8	2	26	2	0	2	2	1173	0	0
8	2	27	2	0	2	2	673	0	0
8	2	28	1	0	2	1	542	0	0
8	2	29	2	0	2	2	819	0	0
8	2	30	2	1	0	2	679	0	550
8	2	31	1	1	2	0	0	0	500
8	2	32	2	0	2	2	697	0	0
8	2	33	2	0	2	2	822	0	0
8	2	34	1	0	2	1	1010	0	0
8	2	35	1	0	2	1	1159	0	0
8	2	36	2	0	2	2	1020	0	0
8	2	37	2	1	2	0	0	0	550
8	2	38	2	0	2	2	1165	0	0
8	2	39	2	0	2	2	978	-9	0
8	2	40	2	0	2	2	878	0	0
8	2	41	2	1	0	2	555	0	600
8	2	42	2	0	2	2	872	0	0
8	2	43	1	0	2	1	1052	0	0
8	2	44	1	0	2	1	1193	0	0
8	2	45	2	1	2	0	0	0	550
8	2	46	1	1	2	0	0	0	600
8	2	47	2	1	2	0	0	0	650
8	2	48	1	0	2	1	996	0	0
8	2	49	2	0	2	2	1241	0	0
8	2	50	1	1	0	1	797	0	700
8	2	51	1	0	2	1	826	0	0
8	2	52	1	1	2	0	0	0	650
8	2	53	2	0	2	2	779	0	0
8	2	54	2	0	0	0	0	0	0
8	2	55	2	0	2	2	1061	0	0
8	2	56	1	1	2	0	0	0	700
8	2	57	2	0	2	2	990	0	0
8	2	58	2	1	2	0	0	0	750
8	2	59	1	0	2	1	767	0	0
8	2	60	1	0	2	1	1044	0	0
8	2	61	2	0	0	0	0	0	0
8	2	62	2	0	2	2	1078	0	0
8	2	63	1	0	2	1	602	0	0
9	0	0	1	0	2	1	693	0	0
9	0	1	2	1	2	0	0	0	200
9	0	2	2	0	2	2	495	0	0
9	0	3	1	0	2	1	419	9	0
9	0	4	2	0	2	2	424	0	0
9	0	5	1	0	2	1	453	0	0
9	0	6	2	0	2	2	457	0	0
9	0	7	2	0	2	2	382	-9	0
9	0	8	2	0	2	2	403	0	0
9	0	9	2	1	0	2	400	0	250
9	0	10	1	0	2	1	436	0	0
9	0	11	2	0	2	2	577	0	0
9	0	12	1	0	2	1	558	0	0
9	0	13	2	1	2	0	0	0	200
9	0	14	2	0	2	2	519	0	0
9	0	15	1	0	2	1	364	0	0
9	0	16	1	1	2	0	0	0	250
9	0	17	1	1	0	1	421	0	300
9	0	18	2	1	2	0	0	0	250
9	0	19	1	0	2	1	542	0	0
9	0	20	1	0	2	1	539	0	0
9	0	21	1	0	2	1	584	0	0
9	0	22	1	1	2	0	0	0	300
9	0	23	1	0	2	1	577	0	0
9	0	24	2	1	2	0	0	0	350
9	0	25	2	0	2	2	435	0	0
9	0	26	2	1	0	2	527	8	400
9	0	27	1	0	2	1	556	0	0
9	0	28	2	0	2	2	625	0	0
9	0	29	2	0	2	2	565	0	0
9	0	30	1	0	2	1	602	0	0
9	0	31	2	0	2	2	567	0	0
9	0	32	1	1	0	1	515	0	350
9	0	33	1	0	2	1	440	0	0
9	0	34	2	0	2	2	557	0	0
9	0	35	1	0	2	1	457	0	0
9	0	36	1	0	2	1	622	0	0
9	0	37	2	0	2	2	691	0	0
9	0	38	2	0	2	2	592	9	0
9	0	39	2	0	2	2	700	0	0
9	0	40	1	0	2	1	785	0	0
9	0	41	2	1	0	2	982	0	300
9	0	42	1	1	0	1	450	0	250
9	0	43	1	1	2	0	0	0	200
9	0	44	1	0	2	1	668	0	0
9	0	45	2	0	2	2	664	0	0
9	0	46	1	0	2	1	733	0	0
9	0	47	1	0	2	1	866	0	0
9	0	48	2	0	2	2	750	0	0
9	0	49	2	0	2	2	523	0	0
9	0	50	1	0	2	1	496	0	0
9	0	51	2	1	2	0	0	0	250
9	0	52	2	0	2	2	745	9	0
9	0	53	2	0	2	2	582	0	0
9	0	54	1	1	2	0	0	0	300
9	0	55	1	0	2	1	807	0	0
9	0	56	2	0	2	2	524	0	0
9	0	57	2	0	2	2	601	0	0
9	0	58	2	0	2	2	733	0	0
9	0	59	1	0	2	1	522	0	0
9	0	60	1	0	2	1	639	0	0
9	0	61	1	1	2	0	0	0	350
9	0	62	1	0	2	1	720	0	0
9	0	63	2	0	2	2	413	0	0
9	1	0	2	0	2	2	560	0	0
9	1	1	1	0	2	1	549	0	0
9	1	2	2	0	2	2	410	0	0
9	1	3	2	0	2	2	478	8	0
9	1	4	2	0	2	2	435	0	0
9	1	5	2	0	2	2	544	0	0
9	1	6	1	0	2	1	716	0	0
9	1	7	2	0	2	2	601	0	0
9	1	8	2	1	2	0	0	0	400
9	1	9	2	1	0	2	427	0	450
9	1	10	1	1	0	1	535	0	400
9	1	11	2	1	0	2	540	0	350
9	1	12	2	0	2	2	577	0	0
9	1	13	1	0	2	1	717	0	0
9	1	14	1	0	2	1	610	0	0
9	1	15	2	0	2	2	655	0	0
9	1	16	1	0	2	1	771	0	0
9	1	17	2	0	2	2	704	0	0
9	1	18	2	0	2	2	613	0	0
9	1	19	1	0	2	1	697	0	0
9	1	20	2	0	2	2	742	0	0
9	1	21	1	1	2	0	0	0	300
9	1	22	2	0	2	2	511	0	0
9	1	23	2	1	2	0	0	0	350
9	1	24	1	0	2	1	729	0	0
9	1	25	1	0	2	1	741	0	0
9	1	26	2	0	2	2	538	0	0
9	1	27	2	0	2	2	639	0	0
9	1	28	1	1	2	0	0	0	400
9	1	29	2	0	2	2	520	0	0
9	1	30	1	0	2	1	581	0	0
9	1	31	1	0	2	1	354	0	0
9	1	32	2	0	2	2	326	0	0
9	1	33	1	0	2	1	459	0	0
9	1	34	1	0	2	1	472	0	0
9	1	35	1	0	2	1	772	0	0
9	1	36	1	0	2	1	697	0	0
9	1	37	1	1	2	0	0	0	450
9	1	38	2	1	0	2	555	0	500
9	1	39	2	1	2	0	0	0	450
9	1	40	2	1	0	2	644	0	500
9	1	41	1	0	2	1	889	0	0
9	1	42	1	1	2	0	0	0	450
9	1	43	1	0	2	1	802	-12	0
9	1	44	1	0	2	1	783	0	0
9	1	45	1	0	2	1	931	0	0
9	1	46	2	0	2	2	736	0	0
9	1	47	1	1	2	0	0	0	500
9	1	48	2	0	2	2	745	0	0
9	1	49	1	0	2	1	774	0	0
9	1	50	1	0	2	1	515	0	0
9	1	51	1	1	0	1	671	0	550
9	1	52	1	0	2	1	852	0	0
9	1	53	2	0	2	2	553	0	0
9	1	54	2	1	2	0	0	0	500
9	1	55	1	0	2	1	770	-12	0
9	1	56	2	0	2	2	567	0	0
9	1	57	2	0	2	2	612	0	0
9	1	58	2	0	2	2	680	0	0
9	1	59	2	0	2	2	533	0	0
9	1	60	1	0	2	1	570	0	0
9	1	61	1	1	0	1	526	0	550
9	1	62	2	0	2	2	483	0	0
9	1	63	1	0	2	1	712	0	0
9	2	0	2	1	2	0	0	0	500
9	2	1	1	1	2	0	0	0	550
9	2	2	2	0	2	2	801	0	0
9	2	3	1	1	2	0	0	0	600
9	2	4	2	0	2	2	627	0	0
9	2	5	2	0	2	2	735	0	0
9	2	6	2	1	0	2	852	0	650
9	2	7	1	1	2	0	0	0	600
9	2	8	1	0	2	1	1141	0	0
9	2	9	1	0	2	1	922	0	0
9	2	10	2	0	2	2	823	0	0
9	2	11	1	0	2	1	1004	0	0
9	2	12	2	0	2	2	808	0	0
9	2	13	1	0	2	1	637	0	0
9	2	14	2	1	0	2	594	0	650
9	2	15	2	0	2	2	798	0	0
9	2	16	1	0	2	1	835	0	0
9	2	17	2	0	2	2	864	0	0
9	2	18	2	0	2	2	932	0	0
9	2	19	2	1	0	2	793	0	600
9	2	20	1	1	2	0	0	0	550
9	2	21	1	0	2	1	938	0	0
9	2	22	1	0	2	1	959	0	0
9	2	23	1	1	0	1	652	0	600
9	2	24	1	0	2	1	1201	0	0
9	2	25	2	1	2	0	0	0	550
9	2	26	1	0	2	1	986	0	0
9	2	27	1	0	2	1	895	0	0
9	2	28	1	0	2	1	1083	0	0
9	2	29	2	0	2	2	880	0	0
9	2	30	1	0	2	1	909	0	0
9	2	31	1	0	2	1	865	0	0
9	2	32	2	0	2	2	822	0	0
9	2	33	1	0	2	1	707	0	0
9	2	34	1	0	2	1	943	0	0
9	2	35	1	0	2	1	844	0	0
9	2	36	2	0	2	2	905	0	0
9	2	37	1	1	2	0	0	0	600
9	2	38	1	0	2	1	786	8	0
9	2	39	2	0	2	2	927	0	0
9	2	40	2	0	2	2	836	-11	0
9	2	41	2	0	2	2	824	0	0
9	2	42	1	0	2	1	925	0	0
9	2	43	1	0	2	1	802	0	0
9	2	44	2	0	2	2	854	0	0
9	2	45	2	0	2	2	731	0	0
9	2	46	1	0	2	1	816	0	0
9	2	47	2	0	2	2	924	0	0
9	2	48	2	0	2	2	761	0	0
9	2	49	1	0	2	1	942	0	0
9	2	50	1	0	2	1	858	0	0
9	2	51	1	1	2	0	0	0	650
9	2	52	2	1	0	2	748	0	700
9	2	53	1	1	2	0	0	0	650
9	2	54	2	0	2	2	1069	0	0
9	2	55	2	1	2	0	0	0	700
9	2	56	2	0	2	2	991	0	0
9	2	57	2	1	0	2	875	0	750
9	2	58	2	0	0	0	0	0	0
9	2	59	2	0	2	2	773	0	0
9	2	60	1	0	2	1	569	0	0
9	2	61	2	0	2	2	686	0	0
9	2	62	2	0	2	2	891	0	0
9	2	63	1	0	2	1	839	0	0
10	0	0	2	0	2	2	941	9	0
10	0	1	1	1	0	1	465	0	50
10	0	2	2	0	2	2	438	0	0
10	0	3	2	1	0	2	371	0	50
10	0	4	2	0	2	2	503	0	0
10	0	5	2	0	2	2	404	0	0
10	0	6	1	0	2	1	353	0	0
10	0	7	1	0	2	1	349	8	0
10	0	8	1	0	2	1	346	0	0
10	0	9	1	1	0	1	479	0	50
10	0	10	2	0	2	2	467	0	0
10	0	11	1	0	2	1	584	0	0
10	0	12	1	0	2	1	437	0	0
10	0	13	2	0	2	2	386	0	0
10	0	14	1	0	2	1	470	0	0
10	0	15	2	1	0	2	539	0	50
10	0	16	1	0	2	1	432	0	0
10	0	17	2	0	2	2	580	0	0
10	0	18	2	1	0	2	497	0	50
10	0	19	1	0	2	1	478	0	0
10	0	20	2	0	2	2	1074	0	0
10	0	21	2	0	2	2	471	0	0
10	0	22	1	0	2	1	500	0	0
10	0	23	1	0	2	1	576	0	0
10	0	24	2	0	2	2	453	0	0
10	0	25	2	0	2	2	402	0	0
10	0	26	2	0	2	2	351	0	0
10	0	27	2	0	2	2	435	9	0
10	0	28	1	0	2	1	552	0	0
10	0	29	1	1	0	1	429	0	50
10	0	30	1	0	2	1	385	0	0
10	0	31	1	0	2	1	358	0	0
10	0	32	2	1	0	2	443	0	50
10	0	33	1	1	0	1	519	0	50
10	0	34	1	0	2	1	428	0	0
10	0	35	2	0	2	2	473	0	0
10	0	36	1	1	0	1	581	0	50
10	0	37	2	0	2	2	778	0	0
10	0	38	1	0	2	1	879	0	0
10	0	39	1	0	2	1	948	0	0
10	0	40	2	1	2	0	0	0	50
10	0	41	1	0	2	1	685	0	0
10	0	42	2	0	2	2	826	0	0
10	0	43	2	1	2	0	0	0	100
10	0	44	1	0	2	1	475	0	0
10	0	45	2	0	2	2	872	0	0
10	0	46	2	0	2	2	396	0	0
10	0	47	1	1	2	0	0	0	150
10	0	48	1	1	0	1	590	0	200
10	0	49	1	0	2	1	458	0	0
10	0	50	2	0	2	2	383	0	0
10	0	51	1	1	2	0	0	0	150
10	0	52	2	0	2	2	368	0	0
10	0	53	1	0	2	1	733	0	0
10	0	54	2	0	2	2	458	0	0
10	0	55	2	0	2	2	511	0	0
10	0	56	2	0	2	2	523	0	0
10	0	57	2	1	0	2	472	0	200
10	0	58	1	0	2	1	597	0	0
10	0	59	1	0	2	1	393	0	0
10	0	60	1	0	2	1	518	0	0
10	0	61	2	0	2	2	451	0	0
10	0	62	2	1	0	2	607	0	150
10	0	63	1	0	2	1	596	0	0
10	1	0	1	0	2	1	914	0	0
10	1	1	1	0	2	1	431	0	0
10	1	2	2	0	2	2	460	0	0
10	1	3	2	1	0	2	424	0	100
10	1	4	2	0	2	2	557	0	0
10	1	5	1	0	2	1	786	0	0
10	1	6	2	1	2	0	0	0	50
10	1	7	2	1	2	0	0	0	100
10	1	8	2	1	2	0	0	0	150
10	1	9	1	0	2	1	516	0	0
10	1	10	2	0	2	2	505	0	0
10	1	11	1	0	2	1	534	0	0
10	1	12	2	0	2	2	346	0	0
10	1	13	2	0	2	2	391	0	0
10	1	14	2	0	2	2	396	0	0
10	1	15	2	0	2	2	409	0	0
10	1	16	1	0	2	1	565	0	0
10	1	17	1	0	2	1	570	0	0
10	1	18	1	0	2	1	423	0	0
10	1	19	2	0	2	2	483	0	0
10	1	20	1	1	0	1	600	0	200
10	1	21	2	0	2	2	477	0	0
10	1	22	2	0	2	2	489	0	0
10	1	23	1	1	2	0	0	0	150
10	1	24	2	1	0	2	595	0	200
10	1	25	1	0	2	1	663	0	0
10	1	26	2	0	2	2	692	0	0
10	1	27	1	0	2	1	465	0	0
10	1	28	1	0	2	1	590	-12	0
10	1	29	1	1	2	0	0	0	150
10	1	30	1	0	2	1	879	0	0
10	1	31	1	0	2	1	532	0	0
10	1	32	2	0	2	2	376	0	0
10	1	33	1	0	2	1	453	0	0
10	1	34	2	0	2	2	450	0	0
10	1	35	2	1	0	2	478	0	200
10	1	36	1	0	2	1	595	0	0
10	1	37	1	0	2	1	792	0	0
10	1	38	1	0	2	1	620	0	0
10	1	39	2	0	2	2	873	0	0
10	1	40	2	1	0	2	406	0	150
10	1	41	1	1	2	0	0	0	100
10	1	42	2	0	2	2	575	0	0
10	1	43	2	0	2	2	452	0	0
10	1	44	2	0	2	2	385	0	0
10	1	45	2	0	2	2	669	0	0
10	1	46	1	1	2	0	0	0	150
10	1	47	1	0	2	1	583	0	0
10	1	48	2	1	0	2	587	0	200
10	1	49	1	0	2	1	584	0	0
10	1	50	2	0	2	2	525	0	0
10	1	51	2	0	2	2	593	0	0
10	1	52	1	1	2	0	0	0	150
10	1	53	1	0	2	1	771	0	0
10	1	54	2	0	2	2	367	0	0
10	1	55	1	0	2	1	404	0	0
10	1	56	2	0	2	2	329	0	0
10	1	57	2	0	2	2	366	0	0
10	1	58	1	0	2	1	530	0	0
10	1	59	1	1	2	0	0	0	200
10	1	60	1	1	0	1	676	0	250
10	1	61	1	0	2	1	632	0	0
10	1	62	1	0	2	1	437	0	0
10	1	63	2	0	2	2	442	0	0
10	2	0	2	0	2	2	754	0	0
10	2	1	1	0	2	1	543	0	0
10	2	2	2	0	2	2	516	0	0
10	2	3	1	0	2	1	513	0	0
10	2	4	2	0	2	2	333	0	0
10	2	5	2	1	0	1	418	0	200
10	2	6	2	0	2	2	511	0	0
10	2	7	1	0	2	1	619	0	0
10	2	8	2	0	2	2	384	0	0
10	2	9	1	0	2	1	677	0	0
10	2	10	2	0	2	2	425	0	0
10	2	11	2	0	2	2	774	0	0
10	2	12	1	0	2	1	587	0	0
10	2	13	2	0	2	2	383	0	0
10	2	14	2	0	2	2	644	0	0
10	2	15	1	1	2	0	0	0	150
10	2	16	1	0	2	1	918	0	0
10	2	17	1	0	2	1	482	0	0
10	2	18	2	0	2	2	495	0	0
10	2	19	2	0	2	2	492	0	0
10	2	20	2	0	2	2	632	0	0
10	2	21	2	0	2	2	685	0	0
10	2	22	1	0	2	1	642	0	0
10	2	23	1	0	2	1	590	0	0
10	2	24	1	0	2	1	523	-12	0
10	2	25	2	1	0	2	416	0	200
10	2	26	2	1	2	0	0	0	150
10	2	27	2	0	2	2	425	0	0
10	2	28	2	1	2	0	0	0	200
10	2	29	1	0	2	1	450	0	0
10	2	30	1	0	2	1	455	0	0
10	2	31	1	1	2	0	0	0	250
10	2	32	2	0	2	2	385	0	0
10	2	33	2	0	2	2	445	0	0
10	2	34	1	1	0	1	530	0	300
10	2	35	1	0	2	1	703	0	0
10	2	36	1	0	2	1	699	0	0
10	2	37	1	1	2	0	0	0	250
10	2	38	2	0	2	2	461	0	0
10	2	39	1	0	2	1	657	0	0
10	2	40	1	0	2	1	510	0	0
10	2	41	1	0	2	1	523	0	0
10	2	42	2	0	2	2	471	0	0
10	2	43	1	0	2	1	484	0	0
10	2	44	2	0	2	2	377	0	0
10	2	45	2	0	2	2	350	0	0
10	2	46	2	1	0	2	402	0	300
10	2	47	2	1	0	2	447	0	250
10	2	48	1	0	2	1	476	0	0
10	2	49	2	0	2	2	696	9	0
10	2	50	1	0	2	1	477	0	0
10	2	51	2	0	2	2	458	0	0
10	2	52	2	1	0	2	366	0	200
10	2	53	2	0	2	2	387	0	0
10	2	54	1	1	2	0	0	0	150
10	2	55	1	1	2	0	0	0	200
10	2	56	1	0	2	1	633	0	0
10	2	57	1	1	2	0	0	0	250
10	2	58	1	0	2	1	698	0	0
10	2	59	2	1	0	2	423	0	300
10	2	60	1	0	2	1	492	0	0
10	2	61	2	0	2	2	513	0	0
10	2	62	1	0	2	1	525	0	0
10	2	63	1	1	2	0	0	0	250
11	0	0	2	0	2	2	757	0	0
11	0	1	2	0	2	2	834	0	0
11	0	2	1	0	2	1	750	0	0
11	0	3	1	0	2	1	723	0	0
11	0	4	2	0	2	2	776	0	0
11	0	5	2	0	2	2	653	0	0
11	0	6	1	0	2	1	713	0	0
11	0	7	2	0	2	2	646	8	0
11	0	8	1	0	2	1	715	0	0
11	0	9	2	1	2	0	0	0	300
11	0	10	1	0	2	1	780	0	0
11	0	11	1	1	2	0	0	0	350
11	0	12	1	1	2	0	0	0	400
11	0	13	2	0	2	2	538	0	0
11	0	14	1	0	2	1	1087	0	0
11	0	15	1	1	0	1	603	0	450
11	0	16	1	0	2	1	776	0	0
11	0	17	2	0	2	2	853	0	0
11	0	18	2	0	2	2	698	0	0
11	0	19	2	1	2	0	0	0	400
11	0	20	2	0	2	2	619	0	0
11	0	21	1	0	2	1	768	0	0
11	0	22	1	0	2	1	732	0	0
11	0	23	1	0	2	1	777	0	0
11	0	24	1	0	2	1	726	0	0
11	0	25	1	1	0	1	554	0	450
11	0	26	2	0	2	2	599	0	0
11	0	27	1	1	2	0	0	0	400
11	0	28	1	0	2	1	696	9	0
11	0	29	1	0	2	1	741	-12	0
11	0	30	1	0	2	1	1058	0	0
11	0	31	2	0	2	2	879	0	0
11	0	32	1	0	2	1	803	0	0
11	0	33	1	1	2	0	0	0	450
11	0	34	2	0	2	2	581	0	0
11	0	35	2	0	2	2	545	0	0
11	0	36	2	1	0	2	534	0	500
11	0	37	1	0	2	1	603	0	0
11	0	38	2	1	2	0	0	0	450
11	0	39	2	0	2	2	676	0	0
11	0	40	2	0	2	2	633	0	0
11	0	41	1	0	2	1	709	0	0
11	0	42	2	1	0	2	786	0	500
11	0	43	2	0	2	2	767	0	0
11	0	44	2	0	2	2	643	0	0
11	0	45	2	0	2	2	720	0	0
11	0	46	1	0	2	1	821	0	0
11	0	47	2	0	2	2	770	0	0
11	0	48	1	0	2	1	622	0	0
11	0	49	1	1	2	0	0	0	450
11	0	50	1	0	2	1	600	0	0
11	0	51	2	1	0	2	700	9	500
11	0	52	2	0	2	2	681	0	0
11	0	53	1	0	2	1	590	0	0
11	0	54	2	0	2	2	578	0	0
11	0	55	2	0	2	2	647	0	0
11	0	56	2	0	2	2	716	0	0
11	0	57	1	0	2	1	632	0	0
11	0	58	1	1	2	0	0	0	450
11	0	59	1	0	2	1	674	0	0
11	0	60	1	0	2	1	670	0	0
11	0	61	2	0	2	2	859	-12	0
11	0	62	2	1	0	2	568	8	500
11	0	63	2	1	0	2	645	0	450
11	1	0	2	0	2	2	1070	0	0
11	1	1	1	1	2	0	0	0	400
11	1	2	2	0	2	2	535	0	0
11	1	3	2	0	2	2	660	0	0
11	1	4	1	0	2	1	689	0	0
11	1	5	1	1	2	0	0	0	450
11	1	6	2	1	0	2	602	0	500
11	1	7	1	0	2	1	759	0	0
11	1	8	1	1	2	0	0	0	450
11	1	9	1	0	2	1	928	0	0
11	1	10	2	0	2	2	837	8	0
11	1	11	1	0	2	1	970	0	0
11	1	12	1	1	2	0	0	0	500
11	1	13	1	0	2	1	699	0	0
11	1	14	1	0	2	1	928	0	0
11	1	15	1	0	2	1	1020	0	0
11	1	16	2	0	2	2	929	0	0
11	1	17	2	0	2	2	934	0	0
11	1	18	1	0	2	1	978	0	0
11	1	19	2	0	2	2	751	0	0
11	1	20	1	0	2	1	772	0	0
11	1	21	2	1	2	0	0	0	550
11	1	22	1	1	2	0	0	0	600
11	1	23	2	0	2	2	650	0	0
11	1	24	2	0	2	2	639	0	0
11	1	25	2	1	0	2	683	0	650
11	1	26	1	0	2	1	720	0	0
11	1	27	2	1	0	2	629	0	600
11	1	28	2	0	2	2	881	0	0
11	1	29	2	0	2	2	830	0	0
11	1	30	1	0	2	1	819	0	0
11	1	31	1	0	2	1	767	0	0
11	1	32	2	1	2	0	0	0	550
11	1	33	1	0	2	1	849	0	0
11	1	34	2	0	2	2	934	0	0
11	1	35	1	1	0	1	754	0	600
11	1	36	2	0	2	2	671	0	0
11	1	37	1	0	2	1	740	0	0
11	1	38	1	0	2	1	888	0	0
11	1	39	2	0	2	2	981	0	0
11	1	40	2	1	2	0	0	0	550
11	1	41	2	0	2	2	862	0	0
11	1	42	1	0	2	1	1187	0	0
11	1	43	2	0	2	2	640	0	0
11	1	44	2	1	0	2	596	0	600
11	1	45	2	0	2	2	569	0	0
11	1	46	1	0	2	1	846	0	0
11	1	47	2	0	2	2	746	0	0
11	1	48	1	0	2	1	815	0	0
11	1	49	1	0	2	1	796	8	0
11	1	50	1	0	2	1	897	8	0
11	1	51	2	0	2	2	797	0	0
11	1	52	2	0	2	2	746	0	0
11	1	53	1	0	2	1	775	0	0
11	1	54	2	0	2	2	1043	0	0
11	1	55	1	0	2	1	752	0	0
11	1	56	1	1	2	0	0	0	550
11	1	57	2	0	2	2	937	0	0
11	1	58	2	0	2	2	742	0	0
11	1	59	1	0	2	1	803	0	0
11	1	60	2	1	0	2	695	0	600
11	1	61	1	1	0	1	748	0	550
11	1	62	2	0	2	2	465	0	0
11	1	63	1	0	2	1	518	0	0
11	2	0	2	0	2	2	788	0	0
11	2	1	2	0	2	2	657	8	0
11	2	2	2	0	2	2	782	-12	0
11	2	3	1	0	2	1	666	0	0
11	2	4	1	1	0	1	559	0	500
11	2	5	2	0	2	2	772	0	0
11	2	6	1	0	2	1	800	0	0
11	2	7	2	1	0	2	581	0	450
11	2	8	1	1	2	0	0	0	400
11	2	9	1	0	2	1	838	0	0
11	2	10	1	1	2	0	0	0	450
11	2	11	1	0	2	1	888	0	0
11	2	12	2	0	2	2	797	0	0
11	2	13	1	0	2	1	857	8	0
11	2	14	2	0	2	2	942	0	0
11	2	15	1	0	2	1	827	0	0
11	2	16	1	1	2	0	0	0	500
11	2	17	2	0	2	2	820	0	0
11	2	18	2	0	2	2	1137	0	0
11	2	19	1	0	2	1	965	0	0
11	2	20	1	0	2	1	954	0	0
11	2	21	1	1	2	0	0	0	550
11	2	22	2	1	0	2	604	0	600
11	2	23	1	0	2	1	728	0	0
11	2	24	1	0	2	1	821	0	0
11	2	25	1	0	2	1	802	0	0
11	2	26	1	0	2	1	710	0	0
11	2	27	2	0	2	2	739	0	0
11	2	28	1	0	2	1	824	0	0
11	2	29	2	0	2	2	788	0	0
11	2	30	1	1	2	0	0	0	550
11	2	31	2	0	2	2	678	0	0
11	2	32	2	1	0	2	618	0	600
11	2	33	1	0	2	1	663	0	0
11	2	34	2	0	2	2	716	0	0
11	2	35	2	0	2	2	600	0	0
11	2	36	2	0	2	2	717	0	0
11	2	37	2	0	2	2	674	0	0
11	2	38	2	0	2	2	775	0	0
11	2	39	1	0	2	1	859	0	0
11	2	40	2	1	0	2	624	0	550
11	2	41	2	0	2	2	709	8	0
11	2	42	1	0	2	1	761	0	0
11	2	43	2	0	2	2	886	0	0
11	2	44	1	0	2	1	979	0	0
11	2	45	1	0	2	1	967	0	0
11	2	46	2	0	2	2	828	0	0
11	2	47	2	1	0	2	697	0	500
11	2	48	1	1	0	1	589	0	450
11	2	49	1	0	2	1	1058	0	0
11	2	50	2	1	2	0	0	0	400
11	2	51	1	0	2	1	724	0	0
11	2	52	2	0	2	2	864	8	0
11	2	53	1	0	2	1	837	0	0
11	2	54	2	0	2	2	978	0	0
11	2	55	2	0	2	2	854	0	0
11	2	56	1	0	2	1	827	0	0
11	2	57	1	1	2	0	0	0	450
11	2	58	2	0	2	2	876	0	0
11	2	59	2	0	2	2	937	0	0
11	2	60	2	1	2	0	0	0	500
11	2	61	1	0	2	1	922	0	0
11	2	62	2	1	2	0	0	0	550
11	2	63	1	0	2	1	756	0	0
12	0	0	2	1	0	2	607	0	300
12	0	1	1	1	2	0	0	0	250
12	0	2	1	0	2	1	592	0	0
12	0	3	2	0	2	2	493	0	0
12	0	4	2	1	0	2	546	0	300
12	0	5	2	0	2	2	598	0	0
12	0	6	2	1	2	0	0	0	250
12	0	7	1	0	2	1	392	0	0
12	0	8	1	0	2	1	653	0	0
12	0	9	1	0	2	1	569	0	0
12	0	10	2	0	2	2	438	0	0
12	0	11	2	0	2	2	475	0	0
12	0	12	2	0	2	2	463	0	0
12	0	13	2	0	2	2	396	0	0
12	0	14	2	0	2	2	393	0	0
12	0	15	2	0	2	2	397	0	0
12	0	16	1	0	2	1	346	0	0
12	0	17	2	0	2	2	431	0	0
12	0	18	2	0	2	2	443	0	0
12	0	19	1	0	2	1	416	0	0
12	0	20	1	1	0	1	437	0	300
12	0	21	1	0	2	1	538	0	0
12	0	22	2	1	0	2	486	0	250
12	0	23	1	0	2	1	507	0	0
12	0	24	2	0	2	2	624	0	0
12	0	25	1	0	2	1	404	0	0
12	0	26	1	1	2	0	0	0	200
12	0	27	1	0	2	1	734	0	0
12	0	28	2	0	2	2	466	0	0
12	0	29	1	0	2	1	367	0	0
12	0	30	1	0	2	1	460	0	0
12	0	31	1	0	2	1	472	0	0
12	0	32	1	0	2	1	517	0	0
12	0	33	1	1	0	1	394	0	250
12	0	34	2	0	2	2	503	0	0
12	0	35	1	0	2	1	507	0	0
12	0	36	2	0	2	2	440	0	0
12	0	37	2	0	2	2	477	0	0
12	0	38	2	1	0	2	401	0	200
12	0	39	1	0	2	1	414	0	0
12	0	40	2	0	2	2	411	0	0
12	0	41	2	1	0	2	367	0	150
12	0	42	1	0	2	1	372	8	0
12	0	43	2	0	2	2	353	0	0
12	0	44	1	1	2	0	0	0	100
12	0	45	1	1	2	0	0	0	150
12	0	46	1	0	2	1	455	0	0
12	0	47	1	0	2	1	483	0	0
12	0	48	2	0	2	2	448	0	0
12	0	49	1	0	2	1	453	0	0
12	0	50	2	0	2	2	442	0	0
12	0	51	2	0	2	2	414	0	0
12	0	52	1	0	2	1	467	0	0
12	0	53	1	1	0	1	424	0	200
12	0	54	2	0	2	2	372	0	0
12	0	55	1	0	2	1	433	0	0
12	0	56	1	0	2	1	454	0	0
12	0	57	2	0	2	2	434	0	0
12	0	58	1	0	2	1	407	0	0
12	0	59	2	1	0	2	412	0	150
12	0	60	2	0	2	2	528	0	0
12	0	61	1	1	2	0	0	0	100
12	0	62	2	0	2	2	458	0	0
12	0	63	2	1	2	0	0	0	150
12	1	0	1	0	2	1	977	0	0
12	1	1	2	0	2	2	517	0	0
12	1	2	2	0	2	2	426	0	0
12	1	3	2	1	2	0	0	0	200
12	1	4	2	1	2	0	0	0	250
12	1	5	1	1	0	1	352	0	300
12	1	6	2	0	2	2	381	0	0
12	1	7	2	0	2	2	378	0	0
12	1	8	1	1	0	1	406	0	250
12	1	9	1	0	2	1	571	0	0
12	1	10	2	0	2	2	584	0	0
12	1	11	2	0	2	2	476	0	0
12	1	12	1	0	2	1	425	0	0
12	1	13	2	1	2	0	0	0	200
12	1	14	2	0	0	1	490	0	0
12	1	15	1	0	2	1	479	0	0
12	1	16	2	1	0	2	412	0	250
12	1	17	1	0	2	1	552	0	0
12	1	18	1	0	2	1	501	0	0
12	1	19	1	0	2	1	482	0	0
12	1	20	1	0	2	1	438	0	0
12	1	21	2	1	2	0	0	0	200
12	1	22	2	0	2	2	464	0	0
12	1	23	1	1	2	0	0	0	250
12	1	24	1	0	2	1	793	0	0
12	1	25	1	1	0	1	462	0	300
12	1	26	2	0	2	2	635	0	0
12	1	27	2	0	2	2	703	0	0
12	1	28	2	0	2	2	596	0	0
12	1	29	2	0	2	2	625	0	0
12	1	30	1	0	2	1	661	0	0
12	1	31	1	0	2	1	586	0	0
12	1	32	2	1	2	0	0	0	250
12	1	33	1	0	2	1	595	0	0
12	1	34	1	0	2	1	544	0	0
12	1	35	2	0	2	2	597	0	0
12	1	36	2	0	2	2	625	0	0
12	1	37	2	0	2	2	622	0	0
12	1	38	1	0	2	1	587	0	0
12	1	39	2	1	0	2	440	9	300
12	1	40	1	0	2	1	508	0	0
12	1	41	2	0	2	2	409	0	0
12	1	42	2	0	2	2	550	0	0
12	1	43	1	0	2	1	546	0	0
12	1	44	1	1	2	0	0	0	250
12	1	45	2	0	2	2	564	0	0
12	1	46	2	0	2	2	528	0	0
12	1	47	1	0	2	1	557	0	0
12	1	48	1	1	0	1	498	0	300
12	1	49	1	1	2	0	0	0	250
12	1	50	1	0	2	1	443	0	0
12	1	51	1	0	2	1	536	-12	0
12	1	52	1	0	2	1	485	0	0
12	1	53	2	0	2	2	553	0	0
12	1	54	1	1	0	1	470	0	300
12	1	55	2	0	2	2	435	0	0
12	1	56	1	0	2	1	511	0	0
12	1	57	2	0	2	2	452	-11	0
12	1	58	2	0	2	2	441	0	0
12	1	59	1	0	2	1	477	0	0
12	1	60	2	0	2	2	418	0	0
12	1	61	1	0	2	1	479	0	0
12	1	62	2	1	0	2	331	0	250
12	1	63	1	0	2	1	440	0	0
12	2	0	2	0	2	2	556	0	0
12	2	1	2	0	2	2	545	0	0
12	2	2	1	0	2	1	590	0	0
12	2	3	2	0	2	2	498	0	0
12	2	4	1	1	2	0	0	0	200
12	2	5	2	0	2	2	452	0	0
12	2	6	2	0	2	2	512	0	0
12	2	7	1	0	2	1	549	0	0
12	2	8	2	1	0	2	490	0	250
12	2	9	2	1	2	0	0	0	200
12	2	10	1	0	2	1	363	0	0
12	2	11	2	0	2	2	528	0	0
12	2	12	2	1	2	0	0	0	250
12	2	13	2	0	2	2	465	0	0
12	2	14	1	0	2	1	502	0	0
12	2	15	1	0	2	1	555	0	0
12	2	16	1	0	2	1	559	0	0
12	2	17	2	0	2	2	404	0	0
12	2	18	2	0	2	2	521	0	0
12	2	19	2	0	2	2	501	0	0
12	2	20	2	0	2	2	506	0	0
12	2	21	2	0	2	2	551	0	0
12	2	22	1	1	0	1	443	0	300
12	2	23	1	1	2	0	0	0	250
12	2	24	2	0	2	2	477	0	0
12	2	25	1	0	2	1	474	0	0
12	2	26	2	0	2	2	478	0	0
12	2	27	2	0	2	2	491	0	0
12	2	28	1	1	0	1	472	0	300
12	2	29	2	1	2	0	0	0	250
12	2	30	2	0	2	2	425	0	0
12	2	31	1	0	2	1	518	0	0
12	2	32	1	0	2	1	450	0	0
12	2	33	2	0	2	2	527	0	0
12	2	34	1	1	0	1	412	0	300
12	2	35	1	0	2	1	464	0	0
12	2	36	2	0	2	2	517	0	0
12	2	37	2	0	2	2	442	0	0
12	2	38	1	0	2	1	510	0	0
12	2	39	1	0	2	1	611	0	0
12	2	40	1	0	2	1	504	0	0
12	2	41	2	1	2	0	0	0	250
12	2	42	1	0	2	1	449	0	0
12	2	43	1	0	2	1	558	-12	0
12	2	44	1	0	2	1	427	0	0
12	2	45	1	0	2	1	431	0	0
12	2	46	1	0	2	1	452	8	0
12	2	47	1	1	0	1	401	0	300
12	2	48	2	0	2	2	413	0	0
12	2	49	1	0	2	1	490	0	0
12	2	50	1	0	2	1	407	0	0
12	2	51	2	0	2	2	427	0	0
12	2	52	1	0	2	1	432	0	0
12	2	53	1	0	2	1	437	0	0
12	2	54	1	0	2	1	458	0	0
12	2	55	2	0	2	2	398	0	0
12	2	56	1	1	0	1	427	0	250
12	2	57	1	0	2	1	448	0	0
12	2	58	2	0	2	2	524	0	0
12	2	59	2	1	2	0	0	0	200
12	2	60	2	1	2	0	0	0	250
12	2	61	2	1	0	2	474	0	300
12	2	62	2	0	2	2	447	0	0
12	2	63	1	1	0	1	444	0	250
13	0	0	2	0	2	2	681	0	0
13	0	1	1	1	0	1	510	0	50
13	0	2	1	0	2	1	459	0	0
13	0	3	1	1	0	1	535	0	50
13	0	4	1	0	2	1	364	0	0
13	0	5	2	1	0	2	345	0	50
13	0	6	2	0	2	2	429	0	0
13	0	7	1	0	2	1	466	0	0
13	0	8	1	1	0	1	399	0	50
13	0	9	2	1	0	2	411	0	50
13	0	10	1	0	0	2	320	0	0
13	0	11	1	1	0	1	477	0	50
13	0	12	2	0	2	2	529	0	0
13	0	13	1	1	0	1	646	0	50
13	0	14	1	0	2	1	547	0	0
13	0	15	1	0	2	1	512	0	0
13	0	16	1	0	2	1	524	0	0
13	0	17	1	0	2	1	481	0	0
13	0	18	1	0	2	1	534	0	0
13	0	19	2	1	0	2	770	0	50
13	0	20	1	0	2	1	519	0	0
13	0	21	2	1	0	2	596	0	50
13	0	22	2	0	2	2	688	0	0
13	0	23	1	0	2	1	469	0	0
13	0	24	2	0	2	2	442	0	0
13	0	25	1	0	2	1	694	0	0
13	0	26	2	0	2	2	627	0	0
13	0	27	1	0	2	1	480	0	0
13	0	28	1	0	2	1	477	0	0
13	0	29	2	0	2	2	489	0	0
13	0	30	2	0	2	2	790	0	0
13	0	31	2	0	2	2	443	0	0
13	0	32	1	0	2	1	495	0	0
13	0	33	1	0	2	1	524	0	0
13	0	34	1	0	2	1	457	0	0
13	0	35	1	1	0	1	437	0	50
13	0	36	2	0	2	2	426	0	0
13	0	37	1	1	0	1	471	0	50
13	0	38	1	0	2	1	427	0	0
13	0	39	2	0	2	2	336	0	0
13	0	40	2	1	0	2	541	0	50
13	0	41	2	1	0	2	465	0	50
13	0	42	1	0	2	1	302	0	0
13	0	43	2	1	0	2	427	0	50
13	0	44	2	0	2	2	448	0	0
13	0	45	2	0	2	2	452	0	0
13	0	46	2	0	2	2	441	0	0
13	0	47	1	0	2	1	382	0	0
13	0	48	2	0	2	2	402	0	0
13	0	49	1	0	2	1	335	0	0
13	0	50	2	0	2	2	396	0	0
13	0	51	2	1	0	2	456	0	50
13	0	52	2	0	2	2	461	0	0
13	0	53	2	0	2	2	482	-10	0
13	0	54	2	0	2	2	422	0	0
13	0	55	2	0	2	2	363	0	0
13	0	56	2	0	2	2	424	0	0
13	0	57	1	0	0	2	485	0	0
13	0	58	1	0	2	1	473	0	0
13	0	59	2	0	2	2	526	0	0
13	0	60	2	0	2	2	451	0	0
13	0	61	1	1	0	1	463	0	50
13	0	62	1	0	2	1	572	0	0
13	0	63	2	0	2	2	537	0	0
13	1	0	1	0	2	1	510	0	0
13	1	1	2	0	2	2	491	0	0
13	1	2	1	0	2	1	504	0	0
13	1	3	2	0	2	2	476	9	0
13	1	4	1	0	2	1	513	0	0
13	1	5	1	0	2	1	494	0	0
13	1	6	2	1	0	2	474	0	50
13	1	7	1	0	2	1	479	0	0
13	1	8	1	0	2	1	460	0	0
13	1	9	2	1	0	2	440	0	50
13	1	10	2	1	0	2	525	0	50
13	1	11	1	1	0	1	498	0	50
13	1	12	1	1	0	1	438	0	50
13	1	13	2	0	2	2	483	0	0
13	1	14	2	1	0	2	488	0	50
13	1	15	1	0	2	1	516	0	0
13	1	16	2	0	2	2	545	0	0
13	1	17	2	0	2	2	1038	0	0
13	1	18	2	0	2	2	547	0	0
13	1	19	2	0	2	2	455	0	0
13	1	20	2	0	2	2	460	0	0
13	1	21	1	0	2	1	489	0	0
13	1	22	1	0	2	1	453	0	0
13	1	23	2	0	2	2	546	0	0
13	1	24	2	1	0	2	487	0	50
13	1	25	2	0	2	2	427	0	0
13	1	26	1	0	2	1	416	0	0
13	1	27	1	0	2	1	429	0	0
13	1	28	2	0	2	2	457	0	0
13	1	29	2	0	2	2	494	0	0
13	1	30	1	0	2	1	435	0	0
13	1	31	2	0	2	2	440	0	0
13	1	32	1	0	2	1	340	0	0
13	1	33	2	1	0	2	497	0	50
13	1	34	1	1	0	1	462	0	50
13	1	35	1	0	2	1	474	0	0
13	1	36	2	0	2	2	647	0	0
13	1	37	2	0	2	2	508	0	0
13	1	38	1	0	2	1	456	0	0
13	1	39	1	1	0	1	461	0	50
13	1	40	2	1	0	2	498	0	50
13	1	41	1	1	0	1	486	0	50
13	1	42	1	0	2	1	483	0	0
13	1	43	1	0	2	1	560	0	0
13	1	44	1	0	2	1	452	0	0
13	1	45	1	0	2	1	417	0	0
13	1	46	1	0	2	1	422	0	0
13	1	47	2	0	2	2	475	0	0
13	1	48	2	0	2	2	431	0	0
13	1	49	1	1	0	1	428	0	50
13	1	50	1	0	2	1	465	0	0
13	1	51	2	1	0	2	565	0	50
13	1	52	2	0	2	2	482	0	0
13	1	53	2	0	2	2	519	0	0
13	1	54	1	1	0	1	891	0	50
13	1	55	2	0	2	2	584	0	0
13	1	56	2	0	2	2	605	0	0
13	1	57	1	0	2	1	513	0	0
13	1	58	1	0	2	1	510	0	0
13	1	59	2	0	2	2	443	8	0
13	1	60	1	1	0	1	448	0	50
13	1	61	2	0	2	2	460	0	0
13	1	62	2	0	2	2	545	0	0
13	1	63	1	0	2	1	478	0	0
13	2	0	1	0	2	1	417	0	0
13	2	1	2	0	2	2	462	0	0
13	2	2	2	0	2	2	466	0	0
13	2	3	1	0	2	1	311	0	0
13	2	4	1	0	2	1	524	0	0
13	2	5	1	0	2	1	345	0	0
13	2	6	1	0	2	1	397	0	0
13	2	7	1	0	2	1	450	0	0
13	2	8	2	0	2	2	479	0	0
13	2	9	2	1	0	2	475	0	50
13	2	10	1	0	2	1	488	0	0
13	2	11	1	0	2	1	493	0	0
13	2	12	1	0	2	1	505	0	0
13	2	13	2	1	0	2	454	0	50
13	2	14	1	1	0	1	563	0	50
13	2	15	1	0	2	1	439	0	0
13	2	16	2	0	2	2	428	0	0
13	2	17	1	0	2	1	649	0	0
13	2	18	2	1	0	2	486	0	50
13	2	19	2	0	2	2	466	0	0
13	2	20	2	0	2	2	527	0	0
13	2	21	2	1	0	2	596	0	50
13	2	22	1	0	2	1	624	0	0
13	2	23	2	0	2	2	1197	0	0
13	2	24	2	0	2	2	426	0	0
13	2	25	2	0	2	2	494	0	0
13	2	26	1	0	2	1	579	0	0
13	2	27	1	0	2	1	504	0	0
13	2	28	2	0	2	2	508	0	0
13	2	29	1	0	2	1	465	0	0
13	2	30	1	1	0	1	494	0	50
13	2	31	2	0	2	2	443	0	0
13	2	32	2	0	2	2	759	0	0
13	2	33	2	1	0	2	460	0	50
13	2	34	1	1	0	1	345	0	50
13	2	35	2	0	2	2	469	0	0
13	2	36	2	1	0	2	450	0	50
13	2	37	1	1	0	1	375	0	50
13	2	38	2	0	2	2	411	0	0
13	2	39	1	0	2	1	440	0	0
13	2	40	1	0	2	1	485	9	0
13	2	41	2	0	2	2	497	0	0
13	2	42	2	0	2	2	566	0	0
13	2	43	1	0	2	1	499	0	0
13	2	44	1	0	2	1	535	0	0
13	2	45	1	0	2	1	492	0	0
13	2	46	1	0	2	1	433	0	0
13	2	47	2	0	2	2	445	0	0
13	2	48	2	0	0	1	370	0	0
13	2	49	2	1	0	2	479	0	50
13	2	50	1	1	0	1	428	0	50
13	2	51	1	0	2	1	496	0	0
13	2	52	1	0	2	1	429	0	0
13	2	53	2	0	2	2	498	0	0
13	2	54	2	0	2	2	478	0	0
13	2	55	2	0	2	2	443	0	0
13	2	56	2	0	2	2	536	0	0
13	2	57	1	0	2	1	380	0	0
13	2	58	2	0	2	2	705	0	0
13	2	59	1	1	0	1	462	0	50
13	2	60	1	1	0	1	474	0	50
13	2	61	2	1	0	2	439	0	50
13	2	62	2	0	0	1	460	0	0
13	2	63	1	1	0	1	529	0	50
14	0	0	2	0	2	2	465	0	0
14	0	1	2	0	2	2	382	0	0
14	0	2	2	0	2	2	434	0	0
14	0	3	2	0	2	2	543	0	0
14	0	4	1	1	0	1	460	0	300
14	0	5	1	0	2	1	616	0	0
14	0	6	2	0	2	2	517	0	0
14	0	7	1	0	2	1	578	0	0
14	0	8	1	0	2	1	438	0	0
14	0	9	2	0	2	2	395	0	0
14	0	10	2	0	0	1	448	0	0
14	0	11	2	0	2	2	628	0	0
14	0	12	2	1	0	2	457	0	250
14	0	13	1	0	2	1	694	0	0
14	0	14	1	0	0	2	907	0	0
14	0	15	2	0	2	2	599	0	0
14	0	16	1	0	2	1	628	0	0
14	0	17	1	0	2	1	657	0	0
14	0	18	1	1	2	0	0	0	200
14	0	19	1	1	2	0	0	0	250
14	0	20	2	0	2	2	535	0	0
14	0	21	1	0	2	1	555	0	0
14	0	22	2	0	2	2	576	0	0
14	0	23	2	1	2	0	0	0	300
14	0	24	1	1	2	0	0	0	350
14	0	25	2	0	2	2	574	0	0
14	0	26	1	1	0	1	491	0	400
14	0	27	2	1	2	0	0	0	350
14	0	28	1	0	2	1	580	0	0
14	0	29	2	0	2	2	401	0	0
14	0	30	1	0	2	1	654	0	0
14	0	31	2	0	2	2	490	0	0
14	0	32	1	1	2	0	0	0	400
14	0	33	1	0	2	1	684	0	0
14	0	34	2	1	0	2	480	0	450
14	0	35	1	0	2	1	581	0	0
14	0	36	1	0	2	1	762	0	0
14	0	37	1	1	0	1	558	0	400
14	0	38	1	0	0	2	763	0	0
14	0	39	2	1	0	2	496	0	350
14	0	40	2	0	2	2	524	0	0
14	0	41	2	1	0	2	457	0	300
14	0	42	2	0	2	2	446	0	0
14	0	43	1	0	2	1	475	0	0
14	0	44	1	0	2	1	615	0	0
14	0	45	1	0	2	1	604	0	0
14	0	46	2	0	2	2	633	0	0
14	0	47	2	1	2	0	0	0	250
14	0	48	1	0	2	1	474	-12	0
14	0	49	2	0	2	2	503	0	0
14	0	50	2	0	2	2	595	0	0
14	0	51	1	0	2	1	528	0	0
14	0	52	2	0	2	2	421	0	0
14	0	53	2	0	2	2	481	0	0
14	0	54	1	1	2	0	0	0	300
14	0	55	2	0	2	2	531	0	0
14	0	56	2	0	2	2	464	0	0
14	0	57	1	0	2	1	500	0	0
14	0	58	2	1	2	0	0	0	350
14	0	59	1	0	2	1	678	0	0
14	0	60	2	0	2	2	522	0	0
14	0	61	1	0	2	1	495	0	0
14	0	62	1	0	2	1	460	0	0
14	0	63	1	0	2	1	832	0	0
14	1	0	1	1	0	1	786	0	400
14	1	1	2	1	0	2	439	0	350
14	1	2	1	0	2	1	603	0	0
14	1	3	2	0	2	2	1168	0	0
14	1	4	1	0	2	1	525	0	0
14	1	5	1	0	2	1	481	0	0
14	1	6	1	1	2	0	0	0	300
14	1	7	2	0	2	2	579	0	0
14	1	8	1	0	2	1	575	0	0
14	1	9	2	0	2	2	540	0	0
14	1	10	2	0	2	2	569	0	0
14	1	11	1	0	0	2	429	0	0
14	1	12	2	1	0	2	554	0	350
14	1	13	2	0	2	2	735	0	0
14	1	14	2	0	2	2	540	0	0
14	1	15	2	0	2	2	472	0	0
14	1	16	1	0	2	1	637	0	0
14	1	17	1	0	2	1	562	0	0
14	1	18	2	1	0	2	462	0	300
14	1	19	1	0	2	1	531	0	0
14	1	20	1	0	2	1	512	0	0
14	1	21	2	0	2	2	500	0	0
14	1	22	2	0	2	2	465	0	0
14	1	23	2	1	2	0	0	0	250
14	1	24	1	0	2	1	562	-9	0
14	1	25	1	0	2	1	639	0	0
14	1	26	1	0	2	1	684	0	0
14	1	27	2	0	2	2	608	0	0
14	1	28	2	0	2	2	517	0	0
14	1	29	2	0	2	2	570	-12	0
14	1	30	1	1	2	0	0	0	300
14	1	31	1	0	2	1	563	0	0
14	1	32	2	0	2	2	552	0	0
14	1	33	2	0	2	2	549	0	0
14	1	34	2	1	2	0	0	0	350
14	1	35	2	0	2	2	622	0	0
14	1	36	1	0	2	1	579	0	0
14	1	37	2	0	2	2	447	0	0
14	1	38	1	0	2	1	388	0	0
14	1	39	2	1	0	2	337	0	400
14	1	40	2	0	2	2	477	0	0
14	1	41	2	0	0	1	746	0	0
14	1	42	2	0	2	2	791	0	0
14	1	43	1	0	2	1	603	0	0
14	1	44	2	0	2	2	392	0	0
14	1	45	2	0	0	1	293	0	0
14	1	46	2	0	2	2	426	0	0
14	1	47	1	0	2	1	550	0	0
14	1	48	1	0	2	1	667	0	0
14	1	49	2	0	2	2	496	0	0
14	1	50	1	1	0	1	524	0	350
14	1	51	1	0	2	1	665	0	0
14	1	52	1	0	2	1	486	0	0
14	1	53	1	0	2	1	458	0	0
14	1	54	2	1	0	2	447	0	300
14	1	55	1	1	2	0	0	0	250
14	1	56	1	0	2	1	553	0	0
14	1	57	1	0	2	1	709	0	0
14	1	58	2	1	2	0	0	0	300
14	1	59	1	1	0	1	455	0	350
14	1	60	1	1	2	0	0	0	300
14	1	61	2	0	2	2	400	0	0
14	1	62	1	1	2	0	0	0	350
14	1	63	1	0	2	1	689	0	0
14	2	0	1	1	2	0	0	0	400
14	2	1	1	0	2	1	470	0	0
14	2	2	1	0	2	1	475	0	0
14	2	3	1	0	2	1	768	8	0
14	2	4	2	1	0	2	492	0	450
14	2	5	1	0	2	1	665	0	0
14	2	6	2	0	2	2	814	0	0
14	2	7	2	0	2	2	586	0	0
14	2	8	1	1	2	0	0	0	400
14	2	9	1	0	2	1	612	0	0
14	2	10	2	0	2	2	552	0	0
14	2	11	2	0	2	2	565	0	0
14	2	12	1	0	2	1	546	0	0
14	2	13	1	1	0	1	534	0	450
14	2	14	1	0	2	1	739	0	0
14	2	15	1	1	0	1	424	0	400
14	2	16	1	0	0	2	749	0	0
14	2	17	1	0	2	1	585	0	0
14	2	18	2	0	2	2	630	0	0
14	2	19	1	0	2	1	483	0	0
14	2	20	1	0	2	1	527	0	0
14	2	21	1	0	2	1	428	0	0
14	2	22	1	0	2	1	505	0	0
14	2	23	2	1	2	0	0	0	350
14	2	24	2	1	2	0	0	0	400
14	2	25	2	0	2	2	607	-11	0
14	2	26	1	1	0	1	555	0	450
14	2	27	1	1	2	0	0	0	400
14	2	28	2	0	2	2	637	0	0
14	2	29	1	0	2	1	889	0	0
14	2	30	2	0	2	2	630	0	0
14	2	31	2	0	2	2	731	0	0
14	2	32	1	0	2	1	816	0	0
14	2	33	2	0	2	2	804	0	0
14	2	34	2	1	0	2	641	0	450
14	2	35	2	0	0	1	854	0	0
14	2	36	2	0	2	2	458	0	0
14	2	37	1	0	2	1	639	0	0
14	2	38	2	0	2	2	652	0	0
14	2	39	2	0	2	2	512	0	0
14	2	40	2	0	2	2	605	0	0
14	2	41	2	0	2	2	682	0	0
14	2	42	2	1	2	0	0	0	400
14	2	43	2	1	2	0	0	0	450
14	2	44	1	0	2	1	736	0	0
14	2	45	2	1	2	0	0	0	500
14	2	46	1	0	2	1	625	0	0
14	2	47	1	0	2	1	878	0	0
14	2	48	2	0	2	2	547	-7	0
14	2	49	2	0	2	2	783	0	0
14	2	50	1	0	2	1	852	8	0
14	2	51	2	0	2	2	753	0	0
14	2	52	1	0	2	1	1013	0	0
14	2	53	2	0	2	2	922	0	0
14	2	54	2	0	2	2	783	0	0
14	2	55	2	1	2	0	0	0	550
14	2	56	2	0	2	2	848	0	0
14	2	57	2	0	2	2	629	0	0
14	2	58	2	0	2	2	457	0	0
14	2	59	1	0	2	1	798	0	0
14	2	60	1	0	2	1	643	0	0
14	2	61	1	1	0	1	800	0	600
14	2	62	1	0	2	1	748	0	0
14	2	63	1	1	2	0	0	0	550
15	0	0	2	0	2	2	1159	0	0
15	0	1	1	0	2	1	676	0	0
15	0	2	1	0	2	1	552	0	0
15	0	3	1	1	2	0	0	0	50
15	0	4	2	0	2	2	386	0	0
15	0	5	2	1	2	0	0	0	100
15	0	6	1	0	2	1	387	0	0
15	0	7	2	0	2	2	400	0	0
15	0	8	1	1	2	0	0	0	150
15	0	9	1	1	2	0	0	0	200
15	0	10	2	1	0	2	382	0	250
15	0	11	2	1	2	0	0	0	200
15	0	12	1	1	0	1	431	0	250
15	0	13	2	0	2	2	412	0	0
15	0	14	1	0	2	1	481	0	0
15	0	15	1	0	2	1	509	0	0
15	0	16	1	0	2	1	442	0	0
15	0	17	1	1	2	0	0	0	200
15	0	18	1	1	0	1	428	0	250
15	0	19	2	0	2	2	544	0	0
15	0	20	2	1	2	0	0	0	200
15	0	21	2	0	2	2	610	0	0
15	0	22	1	0	2	1	526	0	0
15	0	23	1	0	2	1	523	0	0
15	0	24	2	1	2	0	0	0	250
15	0	25	1	0	2	1	532	0	0
15	0	26	1	0	2	1	473	0	0
15	0	27	2	0	2	2	430	0	0
15	0	28	2	0	2	2	482	0	0
15	0	29	1	0	2	1	487	0	0
15	0	30	2	0	2	2	348	0	0
15	0	31	2	0	2	2	360	0	0
15	0	32	1	0	2	1	461	0	0
15	0	33	2	1	0	2	450	0	300
15	0	34	2	0	2	2	503	0	0
15	0	35	1	0	2	1	491	0	0
15	0	36	2	0	2	2	384	0	0
15	0	37	2	0	2	2	493	0	0
15	0	38	2	0	2	2	465	0	0
15	0	39	2	0	2	2	430	0	0
15	0	40	1	0	2	1	539	0	0
15	0	41	2	1	0	2	415	0	250
15	0	42	2	0	2	2	508	0	0
15	0	43	2	0	2	2	481	0	0
15	0	44	2	0	2	2	453	0	0
15	0	45	1	0	2	1	626	0	0
15	0	46	2	0	2	2	607	0	0
15	0	47	1	0	2	1	532	0	0
15	0	48	1	1	2	0	0	0	200
15	0	49	1	0	2	1	469	0	0
15	0	50	1	0	2	1	498	0	0
15	0	51	2	0	2	2	486	0	0
15	0	52	2	0	2	2	443	0	0
15	0	53	1	1	0	1	408	0	250
15	0	54	2	0	2	2	380	0	0
15	0	55	2	0	2	2	529	0	0
15	0	56	1	0	2	1	574	0	0
15	0	57	1	0	2	1	506	0	0
15	0	58	1	0	2	1	495	0	0
15	0	59	1	0	2	1	420	0	0
15	0	60	1	0	2	1	592	0	0
15	0	61	2	1	2	0	0	0	200
15	0	62	1	0	2	1	522	0	0
15	0	63	2	0	2	2	559	0	0
15	1	0	1	0	2	1	664	0	0
15	1	1	2	0	2	2	525	0	0
15	1	2	1	0	2	1	425	0	0
15	1	3	2	0	2	2	406	0	0
15	1	4	2	0	2	2	515	2	0
15	1	5	2	0	2	2	511	0	0
15	1	6	2	0	2	2	524	0	0
15	1	7	1	0	2	1	569	0	0
15	1	8	1	1	2	0	0	0	250
15	1	9	2	0	2	2	466	0	0
15	1	10	1	0	2	1	487	0	0
15	1	11	2	0	2	2	516	0	0
15	1	12	1	0	2	1	520	0	0
15	1	13	1	1	2	0	0	0	300
15	1	14	2	1	0	2	514	0	350
15	1	15	1	0	2	1	558	0	0
15	1	16	1	0	2	1	483	0	0
15	1	17	2	0	2	2	448	0	0
15	1	18	2	1	0	2	476	0	300
15	1	19	2	1	2	0	0	0	250
15	1	20	2	0	2	2	582	0	0
15	1	21	1	1	2	0	0	0	300
15	1	22	1	0	2	1	511	0	0
15	1	23	1	1	2	0	0	0	350
15	1	24	1	0	2	1	497	0	0
15	1	25	1	0	2	1	525	0	0
15	1	26	1	0	2	1	570	0	0
15	1	27	1	0	2	1	495	0	0
15	1	28	2	0	2	2	555	0	0
15	1	29	2	0	2	2	480	0	0
15	1	30	1	0	2	1	429	0	0
15	1	31	1	1	0	1	537	0	400
15	1	32	2	1	2	0	0	0	350
15	1	33	1	0	2	1	667	0	0
15	1	34	2	0	2	2	535	0	0
15	1	35	1	0	2	1	660	0	0
15	1	36	2	0	2	2	625	0	0
15	1	37	2	1	2	0	0	0	400
15	1	38	2	0	2	2	594	0	0
15	1	39	1	0	2	1	655	0	0
15	1	40	2	0	2	2	716	9	0
15	1	41	2	0	2	2	672	0	0
15	1	42	1	1	0	1	557	0	450
15	1	43	2	0	2	2	490	0	0
15	1	44	1	1	0	1	598	0	400
15	1	45	2	0	2	2	547	0	0
15	1	46	2	0	2	2	632	0	0
15	1	47	1	0	2	1	765	0	0
15	1	48	1	0	2	1	585	0	0
15	1	49	1	0	2	1	502	0	0
15	1	50	1	0	2	1	635	0	0
15	1	51	1	0	2	1	639	0	0
15	1	52	2	0	2	2	740	0	0
15	1	53	2	1	0	2	569	0	350
15	1	54	1	1	2	0	0	0	300
15	1	55	2	0	2	2	602	0	0
15	1	56	2	1	2	0	0	0	350
15	1	57	2	1	2	0	0	0	400
15	1	58	1	0	2	1	664	0	0
15	1	59	1	0	2	1	693	0	0
15	1	60	2	0	2	2	705	0	0
15	1	61	2	0	2	2	670	0	0
15	1	62	1	0	2	1	667	0	0
15	1	63	2	0	2	2	864	0	0
15	2	0	1	1	0	1	570	0	450
15	2	1	1	0	2	1	630	0	0
15	2	2	2	0	2	2	667	0	0
15	2	3	1	0	2	1	776	0	0
15	2	4	2	0	2	2	660	0	0
15	2	5	1	0	2	1	649	0	0
15	2	6	2	0	2	2	726	0	0
15	2	7	1	0	2	1	746	0	0
15	2	8	2	0	2	2	591	-10	0
15	2	9	1	0	2	1	548	0	0
15	2	10	1	0	2	1	729	0	0
15	2	11	1	0	2	1	741	0	0
15	2	12	2	0	2	2	658	0	0
15	2	13	2	1	2	0	0	0	400
15	2	14	1	0	2	1	451	0	0
15	2	15	1	1	0	1	616	0	450
15	2	16	2	0	2	2	565	0	0
15	2	17	2	0	2	2	641	0	0
15	2	18	1	0	2	1	558	-12	0
15	2	19	2	1	2	0	0	0	400
15	2	20	2	0	2	2	647	0	0
15	2	21	2	0	2	2	628	0	0
15	2	22	1	0	2	1	697	0	0
15	2	23	1	0	2	1	654	0	0
15	2	24	2	0	2	2	642	0	0
15	2	25	1	0	2	1	543	0	0
15	2	26	2	1	0	2	620	0	450
15	2	27	1	0	2	1	696	0	0
15	2	28	1	1	2	0	0	0	400
15	2	29	2	0	2	2	562	0	0
15	2	30	2	0	2	2	758	0	0
15	2	31	2	0	2	2	699	0	0
15	2	32	1	0	2	1	704	0	0
15	2	33	2	0	2	2	708	0	0
15	2	34	1	1	0	1	545	0	450
15	2	35	2	1	0	2	478	0	400
15	2	36	2	0	2	2	683	0	0
15	2	37	1	0	2	1	439	0	0
15	2	38	1	1	2	0	0	0	350
15	2	39	1	0	2	1	553	0	0
15	2	40	1	0	2	1	589	0	0
15	2	41	1	0	2	1	730	0	0
15	2	42	2	0	2	2	639	0	0
15	2	43	2	0	2	2	563	0	0
15	2	44	2	0	2	2	608	0	0
15	2	45	1	1	2	0	0	0	400
15	2	46	1	0	2	1	585	0	0
15	2	47	1	1	0	1	454	0	450
15	2	48	2	1	2	0	0	0	400
15	2	49	2	1	0	2	512	0	450
15	2	50	1	0	2	1	676	0	0
15	2	51	1	1	2	0	0	0	400
15	2	52	2	0	2	2	526	0	0
15	2	53	2	1	2	0	0	0	450
15	2	54	2	0	2	2	711	0	0
15	2	55	2	1	0	2	684	0	500
15	2	56	1	0	2	1	632	0	0
15	2	57	2	0	2	2	749	0	0
15	2	58	2	0	2	2	738	0	0
15	2	59	2	0	2	2	598	0	0
15	2	60	1	0	2	1	843	-12	0
15	2	61	1	0	2	1	528	0	0
15	2	62	1	0	2	1	532	0	0
15	2	63	2	0	2	2	665	0	0
16	0	0	2	0	2	2	485	0	0
16	0	1	2	0	2	2	410	0	0
16	0	2	2	1	0	2	375	0	200
16	0	3	1	0	2	1	483	0	0
16	0	4	1	0	2	1	384	0	0
16	0	5	2	1	2	0	0	0	150
16	0	6	1	0	2	1	497	0	0
16	0	7	1	0	2	1	446	0	0
16	0	8	2	0	2	2	515	0	0
16	0	9	2	1	2	0	0	0	200
16	0	10	2	0	2	2	516	0	0
16	0	11	1	0	2	1	409	0	0
16	0	12	1	0	2	1	438	0	0
16	0	13	2	0	2	2	618	0	0
16	0	14	2	0	2	2	455	0	0
16	0	15	2	1	2	0	0	0	250
16	0	16	1	0	2	1	424	0	0
16	0	17	2	0	2	2	533	0	0
16	0	18	1	0	2	1	482	8	0
16	0	19	2	0	2	2	406	0	0
16	0	20	2	0	2	2	515	0	0
16	0	21	1	1	0	1	424	0	300
16	0	22	1	0	2	1	557	0	0
16	0	23	1	1	0	1	409	0	250
16	0	24	2	0	2	2	686	0	0
16	0	25	1	0	2	1	627	0	0
16	0	26	2	1	2	0	0	0	200
16	0	27	1	0	2	1	548	0	0
16	0	28	1	1	2	0	0	0	250
16	0	29	2	0	2	2	581	0	0
16	0	30	2	0	2	2	602	0	0
16	0	31	1	1	2	0	0	0	300
16	0	32	1	0	2	1	499	0	0
16	0	33	2	1	0	2	504	8	350
16	0	34	2	0	2	2	637	0	0
16	0	35	1	0	2	1	793	0	0
16	0	36	2	1	2	0	0	0	300
16	0	37	1	1	2	0	0	0	350
16	0	38	2	0	2	2	624	0	0
16	0	39	1	1	0	1	572	0	400
16	0	40	1	0	2	1	737	0	0
16	0	41	2	0	2	2	766	8	0
16	0	42	1	0	2	1	762	0	0
16	0	43	1	0	2	1	599	0	0
16	0	44	1	1	2	0	0	0	350
16	0	45	1	0	2	1	568	0	0
16	0	46	1	0	2	1	525	0	0
16	0	47	2	0	2	2	730	0	0
16	0	48	2	0	2	2	774	0	0
16	0	49	1	1	2	0	0	0	400
16	0	50	1	0	2	1	648	0	0
16	0	51	2	1	2	0	0	0	450
16	0	52	1	0	2	1	665	8	0
16	0	53	2	0	2	2	694	0	0
16	0	54	2	0	2	2	643	0	0
16	0	55	1	0	2	1	703	0	0
16	0	56	1	0	2	1	580	0	0
16	0	57	2	0	2	2	545	0	0
16	0	58	2	0	2	2	701	0	0
16	0	59	2	0	2	2	722	0	0
16	0	60	1	0	2	1	455	0	0
16	0	61	2	0	2	2	491	0	0
16	0	62	2	0	2	2	616	0	0
16	0	63	1	0	2	1	661	8	0
16	1	0	2	0	2	2	596	0	0
16	1	1	2	0	2	2	609	0	0
16	1	2	2	0	2	2	422	0	0
16	1	3	2	0	2	2	626	0	0
16	1	4	1	0	2	1	527	0	0
16	1	5	1	1	0	1	540	0	500
16	1	6	1	0	2	1	632	0	0
16	1	7	2	0	2	2	725	0	0
16	1	8	2	0	2	2	642	0	0
16	1	9	1	1	2	0	0	0	450
16	1	10	2	0	2	2	595	0	0
16	1	11	2	0	2	2	584	0	0
16	1	12	2	0	2	2	773	0	0
16	1	13	1	0	2	1	889	0	0
16	1	14	1	0	2	1	854	0	0
16	1	15	1	1	2	0	0	0	500
16	1	16	1	0	2	1	471	0	0
16	1	17	1	0	2	1	612	0	0
16	1	18	2	0	2	2	641	0	0
16	1	19	1	0	2	1	669	0	0
16	1	20	1	0	2	1	666	0	0
16	1	21	2	0	2	2	615	0	0
16	1	22	1	0	2	1	619	0	0
16	1	23	1	1	0	1	576	8	550
16	1	24	1	1	2	0	0	0	500
16	1	25	2	0	2	2	753	0	0
16	1	26	2	1	2	0	0	0	550
16	1	27	1	0	2	1	755	0	0
16	1	28	2	1	0	2	792	0	600
16	1	29	2	1	0	2	692	0	550
16	1	30	1	0	2	1	809	0	0
16	1	31	1	0	2	1	910	8	0
16	1	32	1	0	2	1	890	0	0
16	1	33	1	0	2	1	735	0	0
16	1	34	2	0	2	2	868	8	0
16	1	35	2	0	2	2	752	8	0
16	1	36	2	1	0	2	661	0	500
16	1	37	2	0	2	2	602	0	0
16	1	38	2	0	2	2	646	0	0
16	1	39	1	0	2	1	739	0	0
16	1	40	2	1	2	0	0	0	450
16	1	41	2	0	2	2	837	0	0
16	1	42	1	0	2	1	665	0	0
16	1	43	1	0	2	1	646	0	0
16	1	44	1	1	0	1	675	0	500
16	1	45	2	1	0	2	615	0	450
16	1	46	2	0	2	2	860	0	0
16	1	47	1	1	2	0	0	0	400
16	1	48	1	0	2	1	501	0	0
16	1	49	1	0	2	1	450	8	0
16	1	50	2	0	2	2	551	0	0
16	1	51	2	0	2	2	635	0	0
16	1	52	2	1	0	2	600	0	450
16	1	53	1	0	2	1	461	8	0
16	1	54	2	0	2	2	762	8	0
16	1	55	2	0	2	2	846	0	0
16	1	56	1	0	2	1	811	0	0
16	1	57	1	0	2	1	760	0	0
16	1	58	2	0	2	2	780	0	0
16	1	59	1	0	2	1	713	0	0
16	1	60	1	0	2	1	766	0	0
16	1	61	1	1	2	0	0	0	400
16	1	62	2	1	2	0	0	0	450
16	1	63	2	0	2	2	812	8	0
16	2	0	2	0	2	2	811	0	0
16	2	1	1	1	0	1	616	0	500
16	2	2	2	1	0	2	621	0	450
16	2	3	2	0	2	2	729	0	0
16	2	4	2	1	2	0	0	0	400
16	2	5	2	0	2	2	827	0	0
16	2	6	2	0	2	2	1047	0	0
16	2	7	2	0	2	2	820	0	0
16	2	8	2	0	2	2	817	0	0
16	2	9	1	0	2	1	781	0	0
16	2	10	1	1	2	0	0	0	450
16	2	11	2	0	2	2	751	0	0
16	2	12	1	0	2	1	739	0	0
16	2	13	1	0	2	1	968	0	0
16	2	14	1	1	2	0	0	0	500
16	2	15	2	1	0	2	714	0	550
16	2	16	1	0	2	1	878	0	0
16	2	17	1	0	2	1	923	0	0
16	2	18	1	0	2	1	768	0	0
16	2	19	1	0	2	1	708	0	0
16	2	20	2	0	2	2	849	0	0
16	2	21	1	0	2	1	926	0	0
16	2	22	1	0	2	1	626	8	0
16	2	23	2	0	2	2	823	0	0
16	2	24	2	0	2	2	796	0	0
16	2	25	2	0	2	2	944	0	0
16	2	26	1	1	2	0	0	0	500
16	2	27	2	0	2	2	682	0	0
16	2	28	2	1	0	2	687	0	550
16	2	29	2	0	2	2	723	0	0
16	2	30	2	0	2	2	936	0	0
16	2	31	1	0	2	1	653	0	0
16	2	32	2	0	2	2	761	0	0
16	2	33	1	1	2	0	0	0	500
16	2	34	2	1	0	2	595	0	550
16	2	35	1	0	2	1	471	0	0
16	2	36	1	1	2	0	0	0	500
16	2	37	1	1	2	0	0	0	550
16	2	38	1	0	2	1	845	0	0
16	2	39	1	0	2	1	818	0	0
16	2	40	1	0	2	1	775	0	0
16	2	41	2	1	2	0	0	0	600
16	2	42	1	0	2	1	1032	0	0
16	2	43	2	1	2	0	0	0	650
16	2	44	2	0	2	2	914	0	0
16	2	45	2	0	2	2	950	0	0
16	2	46	2	0	2	2	971	0	0
16	2	47	1	0	2	1	744	0	0
16	2	48	2	0	2	2	908	0	0
16	2	49	1	0	2	1	937	0	0
16	2	50	1	0	2	1	774	0	0
16	2	51	2	0	2	2	746	0	0
16	2	52	1	0	2	1	975	0	0
16	2	53	1	0	2	1	964	0	0
16	2	54	2	0	2	2	888	0	0
16	2	55	1	0	2	1	949	0	0
16	2	56	1	0	2	1	1010	0	0
16	2	57	1	0	2	1	919	0	0
16	2	58	2	1	2	0	0	0	700
16	2	59	2	0	2	2	768	0	0
16	2	60	2	0	2	2	1037	0	0
16	2	61	1	0	0	0	0	0	0
16	2	62	1	1	2	0	0	0	750
16	2	63	2	0	2	2	819	0	0
17	0	0	2	1	0	2	526	0	50
17	0	1	2	1	0	2	459	0	50
17	0	2	1	1	0	1	400	0	50
17	0	3	2	0	2	2	356	0	0
17	0	4	1	1	0	1	385	0	50
17	0	5	1	0	2	1	422	0	0
17	0	6	2	0	2	2	410	0	0
17	0	7	2	0	0	1	399	0	0
17	0	8	1	0	2	1	380	0	0
17	0	9	2	0	2	2	360	0	0
17	0	10	1	0	2	1	405	0	0
17	0	11	1	1	0	1	450	0	50
17	0	12	2	0	2	2	422	0	0
17	0	13	2	1	0	2	395	0	50
17	0	14	1	0	2	1	552	0	0
17	0	15	2	0	2	2	396	0	0
17	0	16	2	0	2	2	393	0	0
17	0	17	1	0	2	1	390	0	0
17	0	18	1	0	2	1	427	0	0
17	0	19	2	0	2	2	383	0	0
17	0	20	1	0	2	1	404	0	0
17	0	21	1	1	0	1	409	0	50
17	0	22	2	0	2	2	389	0	0
17	0	23	1	0	2	1	378	0	0
17	0	24	2	1	0	2	439	0	50
17	0	25	1	0	2	1	459	0	0
17	0	26	2	0	2	2	360	0	0
17	0	27	1	1	0	1	453	0	50
17	0	28	2	1	0	2	385	0	50
17	0	29	1	0	2	1	414	0	0
17	0	30	1	0	2	1	403	0	0
17	0	31	1	0	2	1	416	0	0
17	0	32	1	0	2	1	364	0	0
17	0	33	2	0	2	2	329	0	0
17	0	34	1	0	2	1	430	8	0
17	0	35	2	0	2	2	370	0	0
17	0	36	2	0	2	2	487	0	0
17	0	37	2	0	2	2	396	0	0
17	0	38	1	0	2	1	456	0	0
17	0	39	2	0	2	2	445	0	0
17	0	40	2	0	2	2	450	0	0
17	0	41	1	0	2	1	366	0	0
17	0	42	2	0	2	2	403	0	0
17	0	43	1	1	0	1	400	0	50
17	0	44	2	0	2	2	380	0	0
17	0	45	2	0	2	2	457	0	0
17	0	46	1	0	2	1	446	0	0
17	0	47	2	0	2	2	363	0	0
17	0	48	2	0	2	2	431	0	0
17	0	49	1	0	2	1	476	0	0
17	0	50	1	0	2	1	401	0	0
17	0	51	1	1	0	1	661	0	50
17	0	52	1	1	0	1	442	0	50
17	0	53	1	0	2	1	359	0	0
17	0	54	2	0	2	2	331	0	0
17	0	55	1	0	2	1	416	0	0
17	0	56	1	0	2	1	581	0	0
17	0	57	2	0	2	2	385	0	0
17	0	58	1	0	2	1	534	0	0
17	0	59	2	1	0	2	555	0	50
17	0	60	2	1	0	2	472	0	50
17	0	61	1	0	2	1	420	0	0
17	0	62	2	0	2	2	417	0	0
17	0	63	2	1	0	2	406	0	50
17	1	0	2	0	2	2	672	0	0
17	1	1	2	0	2	2	373	0	0
17	1	2	1	0	2	1	466	0	0
17	1	3	1	0	2	1	494	0	0
17	1	4	2	1	0	2	571	0	50
17	1	5	2	1	0	2	480	0	50
17	1	6	2	1	0	2	517	0	50
17	1	7	2	1	0	2	433	0	50
17	1	8	1	0	2	1	558	0	0
17	1	9	1	0	2	1	387	0	0
17	1	10	1	0	2	1	367	-12	0
17	1	11	2	0	2	2	372	0	0
17	1	12	1	0	2	1	329	0	0
17	1	13	1	0	0	2	309	0	0
17	1	14	1	0	2	1	554	0	0
17	1	15	2	1	0	2	471	0	50
17	1	16	1	0	2	1	579	0	0
17	1	17	2	0	2	2	576	0	0
17	1	18	1	1	0	1	445	0	50
17	1	19	2	0	2	2	945	0	0
17	1	20	1	0	2	1	558	0	0
17	1	21	2	0	2	2	651	0	0
17	1	22	1	0	2	1	792	0	0
17	1	23	1	0	2	1	516	0	0
17	1	24	2	0	2	2	449	0	0
17	1	25	1	1	0	1	478	0	50
17	1	26	2	0	2	2	378	0	0
17	1	27	1	1	0	1	551	0	50
17	1	28	1	0	2	1	556	-12	0
17	1	29	2	0	2	2	472	0	0
17	1	30	1	1	0	1	493	2	50
17	1	31	2	1	0	2	482	0	50
17	1	32	1	1	0	1	551	0	50
17	1	33	1	0	2	1	515	0	0
17	1	34	2	0	2	2	328	0	0
17	1	35	2	0	2	2	413	0	0
17	1	36	1	0	2	1	425	0	0
17	1	37	2	0	2	2	566	0	0
17	1	38	2	0	2	2	595	0	0
17	1	39	1	1	0	1	583	0	50
17	1	40	2	0	2	2	492	0	0
17	1	41	2	0	2	2	505	0	0
17	1	42	1	0	2	1	749	0	0
17	1	43	2	1	0	2	570	0	50
17	1	44	1	0	2	1	423	0	0
17	1	45	2	0	2	2	411	0	0
17	1	46	1	0	2	1	920	0	0
17	1	47	2	1	0	2	421	0	50
17	1	48	2	0	2	2	553	0	0
17	1	49	1	1	0	1	558	0	50
17	1	50	2	0	2	2	379	0	0
17	1	51	1	0	2	1	408	0	0
17	1	52	1	0	2	1	444	0	0
17	1	53	2	0	2	2	505	0	0
17	1	54	1	0	2	1	694	0	0
17	1	55	1	1	0	1	618	0	50
17	1	56	2	0	2	2	703	0	0
17	1	57	1	0	2	1	516	9	0
17	1	58	2	0	2	2	624	0	0
17	1	59	2	0	2	2	541	0	0
17	1	60	2	0	2	2	674	0	0
17	1	61	2	0	2	2	494	0	0
17	1	62	1	0	2	1	371	0	0
17	1	63	1	0	2	1	520	0	0
17	2	0	2	0	2	2	682	0	0
17	2	1	1	0	2	1	471	0	0
17	2	2	1	0	0	2	395	0	0
17	2	3	2	0	2	2	536	0	0
17	2	4	2	0	2	2	477	0	0
17	2	5	2	0	2	2	409	0	0
17	2	6	1	0	2	1	382	0	0
17	2	7	1	0	2	1	547	0	0
17	2	8	2	1	0	2	568	0	50
17	2	9	2	0	2	2	468	0	0
17	2	10	1	1	0	1	425	0	50
17	2	11	1	0	2	1	526	0	0
17	2	12	2	0	2	2	442	0	0
17	2	13	1	1	0	1	431	0	50
17	2	14	2	0	2	2	468	0	0
17	2	15	1	0	2	1	400	0	0
17	2	16	1	0	2	1	509	0	0
17	2	17	2	1	0	2	562	0	50
17	2	18	2	1	0	2	798	0	50
17	2	19	1	0	2	1	483	0	0
17	2	20	2	1	0	2	544	0	50
17	2	21	2	1	0	2	373	0	50
17	2	22	2	1	0	2	473	0	50
17	2	23	1	1	0	1	502	13	50
17	2	24	1	0	2	1	515	0	0
17	2	25	1	0	2	1	511	0	0
17	2	26	2	0	2	2	500	0	0
17	2	27	2	0	2	2	441	0	0
17	2	28	2	0	2	2	501	0	0
17	2	29	2	0	2	2	434	8	0
17	2	30	1	0	2	1	543	0	0
17	2	31	2	0	2	2	483	0	0
17	2	32	1	0	2	1	528	0	0
17	2	33	1	0	2	1	485	0	0
17	2	34	2	0	2	2	601	0	0
17	2	35	1	0	2	1	790	0	0
17	2	36	2	0	2	2	579	0	0
17	2	37	2	1	0	2	592	0	50
17	2	38	1	1	0	1	644	0	50
17	2	39	1	0	2	1	649	0	0
17	2	40	1	0	2	1	510	0	0
17	2	41	1	0	2	1	458	0	0
17	2	42	2	0	2	2	335	0	0
17	2	43	1	0	2	1	476	-12	0
17	2	44	2	0	2	2	416	0	0
17	2	45	2	0	2	2	517	0	0
17	2	46	2	0	2	2	570	0	0
17	2	47	1	0	2	1	430	0	0
17	2	48	1	1	0	1	579	0	50
17	2	49	1	0	2	1	432	0	0
17	2	50	1	1	0	1	373	0	50
17	2	51	2	0	2	2	545	0	0
17	2	52	1	1	0	1	470	0	50
17	2	53	1	0	2	1	539	0	0
17	2	54	1	0	2	1	455	0	0
17	2	55	2	0	2	2	348	0	0
17	2	56	2	0	2	2	601	0	0
17	2	57	1	1	0	1	517	0	50
17	2	58	2	0	2	2	474	0	0
17	2	59	1	0	2	1	487	0	0
17	2	60	2	0	2	2	547	0	0
17	2	61	2	0	2	2	864	0	0
17	2	62	1	0	2	1	381	0	0
17	2	63	2	1	0	2	401	-8	50
18	0	0	1	1	2	0	0	0	400
18	0	1	1	0	2	1	480	0	0
18	0	2	1	0	2	1	509	0	0
18	0	3	1	0	2	1	514	0	0
18	0	4	2	0	2	2	742	0	0
18	0	5	2	0	2	2	427	0	0
18	0	6	2	1	0	2	456	0	450
18	0	7	1	0	2	1	684	0	0
18	0	8	1	0	2	1	545	0	0
18	0	9	2	1	2	0	0	0	400
18	0	10	1	0	2	1	778	0	0
18	0	11	2	0	2	2	647	0	0
18	0	12	1	0	2	1	660	0	0
18	0	13	1	1	0	1	617	0	450
18	0	14	2	0	2	2	821	0	0
18	0	15	2	0	2	2	642	0	0
18	0	16	2	0	2	2	887	0	0
18	0	17	1	0	2	1	899	9	0
18	0	18	2	0	2	2	920	0	0
18	0	19	2	1	2	0	0	0	400
18	0	20	1	1	0	1	641	-12	450
18	0	21	2	1	2	0	0	0	400
18	0	22	1	0	2	1	547	0	0
18	0	23	2	0	2	2	744	0	0
18	0	24	2	0	2	2	1084	0	0
18	0	25	2	0	2	2	1145	0	0
18	0	26	1	1	2	0	0	0	450
18	0	27	1	0	2	1	890	0	0
18	0	28	2	0	2	2	559	0	0
18	0	29	2	1	2	0	0	0	500
18	0	30	1	0	2	1	760	0	0
18	0	31	1	0	2	1	861	8	0
18	0	32	1	1	0	1	730	0	550
18	0	33	2	0	0	0	0	0	0
18	0	34	1	0	2	1	611	0	0
18	0	35	1	0	2	1	536	0	0
18	0	36	1	0	2	1	797	0	0
18	0	37	1	1	2	0	0	0	500
18	0	38	1	0	2	1	822	0	0
18	0	39	1	1	2	0	0	0	550
18	0	40	1	1	2	0	0	0	600
18	0	41	2	1	0	2	764	0	650
18	0	42	2	0	2	2	1041	0	0
18	0	43	1	0	2	1	1053	0	0
18	0	44	1	0	2	1	618	0	0
18	0	45	2	0	2	2	943	0	0
18	0	46	2	1	0	2	603	0	600
18	0	47	2	0	2	2	704	0	0
18	0	48	1	0	2	1	885	0	0
18	0	49	2	0	2	2	962	0	0
18	0	50	2	0	2	2	886	0	0
18	0	51	1	0	2	1	867	0	0
18	0	52	2	1	0	2	712	0	550
18	0	53	2	0	2	2	604	0	0
18	0	54	2	0	2	2	905	0	0
18	0	55	2	0	2	2	942	0	0
18	0	56	1	0	2	1	762	0	0
18	0	57	2	0	2	2	871	0	0
18	0	58	1	0	2	1	876	0	0
18	0	59	2	0	2	2	944	0	0
18	0	60	2	0	2	2	1037	0	0
18	0	61	2	0	2	2	970	0	0
18	0	62	1	0	2	1	670	0	0
18	0	63	1	0	2	1	659	0	0
18	1	0	1	0	0	2	492	0	0
18	1	1	2	0	2	2	1201	0	0
18	1	2	1	0	2	1	485	0	0
18	1	3	2	0	2	2	506	0	0
18	1	4	1	0	2	1	719	0	0
18	1	5	1	0	2	1	867	0	0
18	1	6	2	1	2	0	0	0	500
18	1	7	2	1	0	2	693	0	550
18	1	8	1	0	2	1	1041	0	0
18	1	9	2	0	0	0	0	0	0
18	1	10	2	0	2	2	523	0	0
18	1	11	2	1	0	2	520	0	500
18	1	12	1	1	0	1	580	0	450
18	1	13	1	0	2	1	913	0	0
18	1	14	1	0	2	1	678	0	0
18	1	15	1	1	2	0	0	0	400
18	1	16	2	0	2	2	615	0	0
18	1	17	2	0	2	2	708	0	0
18	1	18	2	0	2	2	664	0	0
18	1	19	2	0	2	2	669	0	0
18	1	20	2	1	2	0	0	0	450
18	1	21	2	0	2	2	654	0	0
18	1	22	1	0	2	1	579	0	0
18	1	23	1	1	2	0	0	0	500
18	1	24	1	0	2	1	909	0	0
18	1	25	2	0	2	2	561	0	0
18	1	26	2	0	2	2	686	0	0
18	1	27	2	0	2	2	1211	0	0
18	1	28	2	0	2	2	527	0	0
18	1	29	1	0	2	1	564	0	0
18	1	30	2	0	2	2	617	0	0
18	1	31	1	0	2	1	1069	0	0
18	1	32	1	1	0	1	554	0	550
18	1	33	2	0	2	2	591	0	0
18	1	34	2	0	2	2	491	0	0
18	1	35	1	0	2	1	536	0	0
18	1	36	2	1	0	2	541	0	500
18	1	37	2	0	2	2	625	0	0
18	1	38	1	0	2	1	894	0	0
18	1	39	1	1	2	0	0	0	450
18	1	40	2	0	2	2	456	0	0
18	1	41	2	0	2	2	772	0	0
18	1	42	1	0	2	1	889	0	0
18	1	43	2	0	2	2	550	0	0
18	1	44	1	0	2	1	826	0	0
18	1	45	1	0	2	1	831	0	0
18	1	46	1	0	2	1	580	0	0
18	1	47	2	0	2	2	840	0	0
18	1	48	1	1	0	1	629	0	500
18	1	49	2	0	2	2	530	0	0
18	1	50	2	1	0	2	550	0	450
18	1	51	2	1	2	0	0	0	400
18	1	52	1	0	2	1	680	0	0
18	1	53	1	0	2	1	685	0	0
18	1	54	2	0	2	2	993	0	0
18	1	55	2	0	2	2	766	0	0
18	1	56	1	1	2	0	0	0	450
18	1	57	1	0	2	1	743	0	0
18	1	58	1	0	2	1	708	0	0
18	1	59	1	0	2	1	601	0	0
18	1	60	2	1	2	0	0	0	500
18	1	61	1	0	2	1	594	0	0
18	1	62	1	1	2	0	0	0	550
18	1	63	1	0	2	1	715	0	0
18	2	0	2	0	2	2	551	0	0
18	2	1	1	0	2	1	636	0	0
18	2	2	1	1	2	0	0	0	600
18	2	3	1	0	2	1	502	0	0
18	2	4	2	0	2	2	642	0	0
18	2	5	2	0	2	2	783	0	0
18	2	6	1	1	0	1	756	0	650
18	2	7	1	0	2	1	984	0	0
18	2	8	2	0	2	2	637	0	0
18	2	9	2	1	2	0	0	0	600
18	2	10	1	0	2	1	950	0	0
18	2	11	1	0	2	1	667	0	0
18	2	12	2	0	2	2	672	9	0
18	2	13	2	0	0	0	0	0	0
18	2	14	1	0	2	1	937	0	0
18	2	15	2	0	2	2	558	0	0
18	2	16	2	0	2	2	547	0	0
18	2	17	1	0	2	1	599	0	0
18	2	18	1	1	2	0	0	0	650
18	2	19	1	1	0	1	737	0	700
18	2	20	1	1	0	1	973	0	650
18	2	21	1	1	2	0	0	0	600
18	2	22	1	0	2	1	1031	0	0
18	2	23	2	1	2	0	0	0	650
18	2	24	2	0	2	2	1088	0	0
18	2	25	1	0	2	1	781	0	0
18	2	26	2	0	2	2	737	0	0
18	2	27	2	0	2	2	806	0	0
18	2	28	2	1	2	0	0	0	700
18	2	29	2	0	2	2	656	0	0
18	2	30	2	0	2	2	1060	0	0
18	2	31	1	0	2	1	625	0	0
18	2	32	2	1	0	2	686	0	750
18	2	33	2	0	2	2	522	0	0
18	2	34	2	0	2	2	775	0	0
18	2	35	2	0	2	2	908	0	0
18	2	36	2	1	2	0	0	0	700
18	2	37	1	0	2	1	597	0	0
18	2	38	1	0	0	0	0	0	0
18	2	39	1	0	2	1	630	0	0
18	2	40	1	0	2	1	587	0	0
18	2	41	2	0	2	2	696	0	0
18	2	42	1	1	0	1	629	0	750
18	2	43	1	0	2	1	713	0	0
18	2	44	1	0	2	1	534	0	0
18	2	45	2	0	2	2	587	0	0
18	2	46	2	1	0	2	695	0	700
18	2	47	1	0	2	1	604	0	0
18	2	48	1	0	2	1	633	0	0
18	2	49	1	0	2	1	797	0	0
18	2	50	2	0	2	2	722	0	0
18	2	51	1	0	2	1	751	0	0
18	2	52	2	1	0	2	619	0	650
18	2	53	2	1	0	2	544	8	600
18	2	54	2	0	2	2	613	0	0
18	2	55	2	0	2	2	658	0	0
18	2	56	2	0	2	2	854	8	0
18	2	57	1	1	2	0	0	0	550
18	2	58	2	0	2	2	568	0	0
18	2	59	2	0	2	2	724	0	0
18	2	60	1	0	2	1	1017	0	0
18	2	61	1	0	2	1	758	-12	0
18	2	62	1	0	2	1	562	0	0
18	2	63	1	0	2	1	591	0	0
19	0	0	1	1	0	1	452	0	150
19	0	1	1	0	2	1	520	0	0
19	0	2	2	0	2	2	405	0	0
19	0	3	2	0	2	2	562	0	0
19	0	4	1	0	2	1	526	0	0
19	0	5	2	1	2	0	0	0	100
19	0	6	2	0	2	2	472	0	0
19	0	7	1	0	2	1	436	0	0
19	0	8	2	0	2	2	433	0	0
19	0	9	1	0	2	1	382	0	0
19	0	10	1	0	2	1	354	0	0
19	0	11	2	0	2	2	487	0	0
19	0	12	2	0	2	2	388	0	0
19	0	13	2	0	2	2	480	0	0
19	0	14	2	1	0	2	453	0	150
19	0	15	1	1	0	1	666	0	100
19	0	16	1	1	2	0	0	0	50
19	0	17	2	1	0	2	483	0	100
19	0	18	1	1	2	0	0	0	50
19	0	19	2	1	2	0	0	0	100
19	0	20	2	0	2	2	441	0	0
19	0	21	2	0	2	2	846	0	0
19	0	22	1	0	2	1	555	0	0
19	0	23	1	0	2	1	559	0	0
19	0	24	1	1	2	0	0	0	150
19	0	25	1	0	2	1	537	0	0
19	0	26	2	0	2	2	485	0	0
19	0	27	1	1	0	1	506	0	200
19	0	28	2	1	2	0	0	0	150
19	0	29	1	0	2	1	532	0	0
19	0	30	2	0	2	2	432	0	0
19	0	31	1	0	2	1	717	0	0
19	0	32	1	0	2	1	490	0	0
19	0	33	1	0	2	1	494	0	0
19	0	34	1	0	2	1	411	0	0
19	0	35	1	1	2	0	0	0	200
19	0	36	2	0	2	2	452	0	0
19	0	37	2	0	2	2	465	0	0
19	0	38	1	0	2	1	526	0	0
19	0	39	1	0	2	1	450	0	0
19	0	40	2	0	2	2	487	0	0
19	0	41	2	0	2	2	444	8	0
19	0	42	1	0	2	1	601	0	0
19	0	43	2	0	2	2	461	0	0
19	0	44	1	0	2	1	402	0	0
19	0	45	1	0	2	1	551	0	0
19	0	46	1	0	2	1	443	0	0
19	0	47	1	0	2	1	448	0	0
19	0	48	2	1	2	0	0	0	250
19	0	49	2	1	2	0	0	0	300
19	0	50	1	0	2	1	470	8	0
19	0	51	1	1	0	1	499	0	350
19	0	52	2	0	2	2	543	0	0
19	0	53	1	0	2	1	620	0	0
19	0	54	2	1	2	0	0	0	300
19	0	55	2	0	2	2	517	0	0
19	0	56	2	0	2	2	514	0	0
19	0	57	2	0	2	2	655	0	0
19	0	58	1	0	2	1	636	0	0
19	0	59	1	0	2	1	552	0	0
19	0	60	2	0	2	2	581	0	0
19	0	61	2	0	2	2	874	0	0
19	0	62	2	0	2	2	550	0	0
19	0	63	2	0	2	2	507	0	0
19	1	0	1	0	2	1	634	0	0
19	1	1	2	1	0	2	471	0	350
19	1	2	2	0	2	2	451	0	0
19	1	3	2	0	2	2	592	0	0
19	1	4	2	0	2	2	389	0	0
19	1	5	1	1	0	1	473	-10	300
19	1	6	1	1	2	0	0	0	250
19	1	7	2	1	2	0	0	0	300
19	1	8	2	0	2	2	735	0	0
19	1	9	2	0	2	2	412	0	0
19	1	10	2	1	0	2	433	0	350
19	1	11	1	0	2	1	581	0	0
19	1	12	1	0	2	1	554	0	0
19	1	13	1	0	2	1	399	0	0
19	1	14	1	1	2	0	0	0	300
19	1	15	2	1	0	2	576	0	350
19	1	16	2	0	2	2	581	0	0
19	1	17	2	0	2	2	786	0	0
19	1	18	1	0	2	1	598	0	0
19	1	19	2	0	2	2	499	0	0
19	1	20	2	0	2	2	592	0	0
19	1	21	1	0	2	1	628	0	0
19	1	22	1	0	2	1	689	0	0
19	1	23	1	0	2	1	510	0	0
19	1	24	2	1	0	2	482	0	300
19	1	25	2	0	2	2	671	0	0
19	1	26	2	0	2	2	876	0	0
19	1	27	1	0	2	1	712	0	0
19	1	28	2	0	2	2	765	0	0
19	1	29	1	0	2	1	762	0	0
19	1	30	1	0	2	1	822	0	0
19	1	31	1	0	2	1	603	0	0
19	1	32	1	0	2	1	784	0	0
19	1	33	2	0	2	2	757	0	0
19	1	34	1	0	2	1	729	0	0
19	1	35	1	0	2	1	838	0	0
19	1	36	2	0	2	2	539	0	0
19	1	37	2	0	2	2	687	0	0
19	1	38	2	0	2	2	748	0	0
19	1	39	1	0	2	1	577	0	0
19	1	40	1	0	2	1	693	0	0
19	1	41	1	0	2	1	930	0	0
19	1	42	1	1	2	0	0	0	250
19	1	43	2	1	2	0	0	0	300
19	1	44	2	1	0	2	504	0	350
19	1	45	2	0	2	2	661	0	0
19	1	46	1	1	2	0	0	0	300
19	1	47	2	0	2	2	678	0	0
19	1	48	1	0	2	1	771	0	0
19	1	49	1	1	2	0	0	0	350
19	1	50	2	0	2	2	508	0	0
19	1	51	2	0	2	2	769	0	0
19	1	52	2	0	2	2	774	0	0
19	1	53	2	0	2	2	514	0	0
19	1	54	2	1	0	2	535	0	400
19	1	55	1	0	2	1	580	0	0
19	1	56	2	0	2	2	808	0	0
19	1	57	1	1	2	0	0	0	350
19	1	58	2	0	2	2	546	0	0
19	1	59	1	0	2	1	551	0	0
19	1	60	1	0	2	1	651	0	0
19	1	61	1	1	0	1	560	0	400
19	1	62	1	0	2	1	661	0	0
19	1	63	1	0	2	1	489	0	0
19	2	0	2	0	2	2	524	0	0
19	2	1	1	0	2	1	729	0	0
19	2	2	1	1	2	0	0	0	350
19	2	3	1	0	2	1	506	0	0
19	2	4	1	0	2	1	743	0	0
19	2	5	2	0	2	2	692	0	0
19	2	6	2	0	2	2	480	0	0
19	2	7	2	1	2	0	0	0	400
19	2	8	1	1	0	1	546	0	450
19	2	9	2	0	2	2	574	0	0
19	2	10	1	0	2	1	907	0	0
19	2	11	2	1	2	0	0	0	400
19	2	12	1	0	2	1	748	0	0
19	2	13	1	1	2	0	0	0	450
19	2	14	1	1	0	1	678	0	500
19	2	15	1	0	2	1	650	0	0
19	2	16	1	0	2	1	623	0	0
19	2	17	2	0	2	2	604	0	0
19	2	18	2	0	2	2	745	0	0
19	2	19	2	1	2	0	0	0	450
19	2	20	1	1	2	0	0	0	500
19	2	21	2	0	2	2	631	0	0
19	2	22	1	1	0	1	627	0	550
19	2	23	2	0	2	2	656	-11	0
19	2	24	1	0	2	1	869	0	0
19	2	25	2	0	2	2	729	-11	0
19	2	26	1	0	2	1	710	0	0
19	2	27	2	1	2	0	0	0	500
19	2	28	1	0	2	1	863	0	0
19	2	29	1	0	2	1	660	0	0
19	2	30	2	0	2	2	713	0	0
19	2	31	1	0	2	1	621	0	0
19	2	32	2	1	2	0	0	0	550
19	2	33	1	0	2	1	1143	0	0
19	2	34	2	0	2	2	580	0	0
19	2	35	1	0	2	1	672	0	0
19	2	36	1	1	0	1	549	0	600
19	2	37	2	0	2	2	698	0	0
19	2	38	1	0	2	1	646	0	0
19	2	39	2	1	0	2	651	0	550
19	2	40	2	0	2	2	648	0	0
19	2	41	1	0	2	1	916	0	0
19	2	42	1	0	2	1	737	0	0
19	2	43	2	0	2	2	878	0	0
19	2	44	2	0	2	2	634	0	0
19	2	45	1	0	2	1	791	0	0
19	2	46	2	0	2	2	796	0	0
19	2	47	1	0	2	1	649	0	0
19	2	48	1	0	2	1	845	0	0
19	2	49	2	0	2	2	834	0	0
19	2	50	2	1	2	0	0	0	500
19	2	51	2	0	2	2	715	0	0
19	2	52	1	0	2	1	840	0	0
19	2	53	2	0	2	2	693	0	0
19	2	54	2	0	2	2	825	0	0
19	2	55	2	0	2	2	822	0	0
19	2	56	2	0	2	2	867	0	0
19	2	57	1	0	2	1	839	0	0
19	2	58	2	1	2	0	0	0	550
19	2	59	2	0	2	2	881	0	0
19	2	60	2	0	2	2	749	0	0
19	2	61	1	0	2	1	594	0	0
19	2	62	1	0	2	1	735	0	0
19	2	63	1	1	0	1	692	0	600
20	0	0	2	0	2	2	683	0	0
20	0	1	1	0	2	1	472	0	0
20	0	2	2	1	0	2	581	0	50
20	0	3	2	0	2	2	1113	0	0
20	0	4	1	1	0	1	734	0	50
20	0	5	2	0	2	2	659	0	0
20	0	6	1	1	0	1	623	0	50
20	0	7	1	0	2	1	500	0	0
20	0	8	1	1	0	1	497	0	50
20	0	9	1	0	2	1	613	0	0
20	0	10	1	0	2	1	402	0	0
20	0	11	2	0	2	2	463	0	0
20	0	12	2	0	2	2	500	0	0
20	0	13	2	0	2	2	472	0	0
20	0	14	1	0	2	1	501	0	0
20	0	15	1	0	2	1	410	0	0
20	0	16	2	0	2	2	486	0	0
20	0	17	2	0	2	2	491	0	0
20	0	18	2	0	2	2	488	0	0
20	0	19	1	0	2	1	404	0	0
20	0	20	1	0	2	1	385	0	0
20	0	21	2	1	0	2	558	0	50
20	0	22	1	0	2	1	434	0	0
20	0	23	2	0	2	2	519	0	0
20	0	24	2	1	0	2	524	0	50
20	0	25	2	0	2	2	505	0	0
20	0	26	1	1	0	1	437	0	50
20	0	27	2	0	2	2	458	0	0
20	0	28	2	0	2	2	439	0	0
20	0	29	1	0	2	1	515	0	0
20	0	30	1	0	2	1	528	0	0
20	0	31	2	1	0	2	533	0	50
20	0	32	2	0	2	2	561	-14	0
20	0	33	1	1	0	1	662	0	50
20	0	34	2	1	0	2	507	0	50
20	0	35	1	0	2	1	391	0	0
20	0	36	2	1	0	2	476	0	50
20	0	37	2	0	2	2	497	0	0
20	0	38	2	0	2	2	469	0	0
20	0	39	2	0	2	2	490	0	0
20	0	40	1	0	2	1	471	0	0
20	0	41	1	1	0	1	476	0	50
20	0	42	1	0	2	1	440	0	0
20	0	43	1	0	2	1	493	0	0
20	0	44	2	0	2	2	626	0	0
20	0	45	1	0	2	1	510	0	0
20	0	46	2	0	2	2	491	0	0
20	0	47	1	1	0	1	472	0	50
20	0	48	1	0	2	1	500	0	0
20	0	49	1	0	2	1	473	0	0
20	0	50	1	0	2	1	470	0	0
20	0	51	1	0	2	1	426	0	0
20	0	52	1	0	2	1	431	0	0
20	0	53	2	0	2	2	468	0	0
20	0	54	2	0	2	2	553	0	0
20	0	55	1	0	2	1	525	0	0
20	0	56	2	0	2	2	530	0	0
20	0	57	1	1	0	1	1151	0	50
20	0	58	2	0	2	2	915	0	0
20	0	59	1	0	2	1	432	0	0
20	0	60	1	0	2	1	589	0	0
20	0	61	2	1	0	2	577	0	50
20	0	62	2	1	0	2	742	0	50
20	0	63	2	0	2	2	683	0	0
20	1	0	1	1	0	1	1014	0	50
20	1	1	1	0	2	1	554	0	0
20	1	2	1	0	2	1	391	0	0
20	1	3	1	0	2	1	436	0	0
20	1	4	2	1	2	0	0	0	50
20	1	5	2	1	0	2	517	0	100
20	1	6	2	0	2	2	650	9	0
20	1	7	2	1	0	2	462	0	50
20	1	8	2	0	2	2	811	0	0
20	1	9	1	0	2	1	528	0	0
20	1	10	1	0	2	1	532	0	0
20	1	11	2	0	2	2	537	0	0
20	1	12	2	0	2	2	478	0	0
20	1	13	2	0	2	2	403	0	0
20	1	14	1	0	2	1	455	0	0
20	1	15	2	0	2	2	484	0	0
20	1	16	1	1	2	0	0	0	50
20	1	17	2	0	2	2	429	0	0
20	1	18	1	0	2	1	554	0	0
20	1	19	2	0	2	2	471	0	0
20	1	20	2	1	0	2	499	0	100
20	1	21	1	0	2	1	688	0	0
20	1	22	2	1	2	0	0	0	50
20	1	23	1	0	2	1	473	0	0
20	1	24	2	0	2	2	646	0	0
20	1	25	1	0	2	1	627	0	0
20	1	26	2	0	2	2	472	0	0
20	1	27	1	0	2	1	668	0	0
20	1	28	1	0	2	1	673	0	0
20	1	29	1	0	2	1	606	0	0
20	1	30	1	0	2	1	666	0	0
20	1	31	2	0	2	2	823	0	0
20	1	32	1	1	2	0	0	0	100
20	1	33	1	1	2	0	0	0	150
20	1	34	2	0	2	2	461	0	0
20	1	35	1	0	2	1	698	0	0
20	1	36	2	0	2	2	638	0	0
20	1	37	1	1	0	1	507	0	200
20	1	38	1	0	2	1	424	0	0
20	1	39	2	0	2	2	572	0	0
20	1	40	1	0	2	1	465	0	0
20	1	41	2	0	2	2	534	0	0
20	1	42	1	0	2	1	771	0	0
20	1	43	2	0	2	2	415	0	0
20	1	44	1	0	2	1	580	0	0
20	1	45	1	1	2	0	0	0	150
20	1	46	1	1	2	0	0	0	200
20	1	47	2	0	2	2	706	0	0
20	1	48	1	0	2	1	431	0	0
20	1	49	2	1	0	2	427	0	250
20	1	50	2	0	0	1	424	0	0
20	1	51	1	0	2	1	437	0	0
20	1	52	1	0	2	1	737	0	0
20	1	53	2	0	2	2	598	0	0
20	1	54	1	0	2	1	627	0	0
20	1	55	2	0	2	2	536	0	0
20	1	56	2	0	2	2	660	0	0
20	1	57	2	1	2	0	0	0	200
20	1	58	2	1	2	0	0	0	250
20	1	59	2	0	2	2	634	0	0
20	1	60	2	0	2	2	583	8	0
20	1	61	2	0	2	2	428	0	0
20	1	62	1	1	2	0	0	0	300
20	1	63	1	0	2	1	733	0	0
20	2	0	1	0	2	1	857	0	0
20	2	1	1	0	2	1	557	0	0
20	2	2	2	1	0	2	770	0	350
20	2	3	1	0	2	1	767	0	0
20	2	4	1	0	2	1	499	0	0
20	2	5	2	0	2	2	544	0	0
20	2	6	1	0	2	1	669	0	0
20	2	7	1	1	0	1	473	0	300
20	2	8	2	0	2	2	718	0	0
20	2	9	1	0	2	1	627	0	0
20	2	10	1	0	2	1	607	0	0
20	2	11	2	0	2	2	500	0	0
20	2	12	1	1	2	0	0	0	250
20	2	13	2	0	2	2	645	0	0
20	2	14	1	0	2	1	514	0	0
20	2	15	1	1	2	0	0	0	300
20	2	16	2	0	2	2	492	0	0
20	2	17	1	0	2	1	768	0	0
20	2	18	2	0	2	2	685	0	0
20	2	19	2	0	2	2	994	0	0
20	2	20	2	0	2	2	846	0	0
20	2	21	1	0	2	1	691	0	0
20	2	22	1	0	2	1	800	0	0
20	2	23	2	0	2	2	756	0	0
20	2	24	2	0	2	2	1017	0	0
20	2	25	2	0	2	2	886	0	0
20	2	26	1	0	2	1	754	0	0
20	2	27	2	1	0	2	799	0	350
20	2	28	1	0	2	1	844	0	0
20	2	29	2	0	2	2	865	0	0
20	2	30	1	0	2	1	925	0	0
20	2	31	1	0	0	0	0	0	0
20	2	32	2	0	2	2	439	0	0
20	2	33	2	1	2	0	0	0	300
20	2	34	2	0	2	2	496	0	0
20	2	35	2	0	2	2	653	0	0
20	2	36	2	0	2	2	745	0	0
20	2	37	2	0	2	2	934	0	0
20	2	38	1	0	2	1	763	0	0
20	2	39	2	0	2	2	815	0	0
20	2	40	1	1	2	0	0	0	350
20	2	41	1	1	2	0	0	0	400
20	2	42	2	0	2	2	494	8	0
20	2	43	2	1	2	0	0	0	450
20	2	44	2	0	2	2	535	0	0
20	2	45	1	0	2	1	820	0	0
20	2	46	1	0	2	1	504	0	0
20	2	47	2	0	2	2	1045	0	0
20	2	48	2	1	2	0	0	0	500
20	2	49	1	0	2	1	814	0	0
20	2	50	1	0	0	0	0	0	0
20	2	51	2	0	2	2	552	0	0
20	2	52	1	0	2	1	596	0	0
20	2	53	1	0	2	1	601	0	0
20	2	54	1	0	2	1	510	0	0
20	2	55	2	1	0	2	530	0	550
20	2	56	1	1	0	1	671	0	500
20	2	57	1	1	0	1	620	0	450
20	2	58	2	1	0	2	481	0	400
20	2	59	2	1	2	0	0	0	350
20	2	60	1	0	2	1	682	0	0
20	2	61	1	1	2	0	0	0	400
20	2	62	2	0	2	2	1011	0	0
20	2	63	2	0	2	2	640	0	0
21	0	0	2	0	2	2	525	0	0
21	0	1	2	0	2	2	658	0	0
21	0	2	2	0	2	2	550	0	0
21	0	3	2	1	2	0	0	0	300
21	0	4	1	0	2	1	528	0	0
21	0	5	1	0	2	1	492	0	0
21	0	6	1	0	2	1	521	0	0
21	0	7	1	0	2	1	486	0	0
21	0	8	2	0	2	2	490	0	0
21	0	9	2	0	2	2	583	0	0
21	0	10	1	0	2	1	364	0	0
21	0	11	2	0	2	2	408	0	0
21	0	12	2	0	0	1	437	0	0
21	0	13	1	0	2	1	418	0	0
21	0	14	2	0	2	2	566	0	0
21	0	15	1	1	0	1	379	0	350
21	0	16	1	0	2	1	552	0	0
21	0	17	2	1	0	2	429	0	300
21	0	18	1	1	0	1	385	0	250
21	0	19	2	0	2	2	678	0	0
21	0	20	1	0	2	1	787	0	0
21	0	21	1	0	2	1	503	0	0
21	0	22	2	0	2	2	476	0	0
21	0	23	1	1	2	0	0	0	200
21	0	24	1	0	2	1	517	0	0
21	0	25	1	1	2	0	0	0	250
21	0	26	1	0	2	1	607	0	0
21	0	27	2	0	2	2	571	0	0
21	0	28	2	1	2	0	0	0	300
21	0	29	2	0	2	2	429	0	0
21	0	30	1	0	2	1	426	0	0
21	0	31	2	0	2	2	582	0	0
21	0	32	1	0	2	1	475	0	0
21	0	33	1	0	2	1	576	0	0
21	0	34	2	0	2	2	468	0	0
21	0	35	2	0	2	2	481	0	0
21	0	36	1	0	2	1	478	0	0
21	0	37	2	0	2	2	522	0	0
21	0	38	2	0	2	2	543	0	0
21	0	39	1	0	2	1	492	0	0
21	0	40	2	0	2	2	496	0	0
21	0	41	2	1	0	2	493	0	350
21	0	42	2	0	2	2	602	0	0
21	0	43	1	1	2	0	0	0	300
21	0	44	1	0	2	1	563	0	0
21	0	45	2	0	2	2	592	-8	0
21	0	46	1	1	2	0	0	0	350
21	0	47	1	1	0	1	537	0	400
21	0	48	1	0	2	1	582	0	0
21	0	49	1	0	2	1	667	0	0
21	0	50	2	1	2	0	0	0	350
21	0	51	2	0	2	2	580	0	0
21	0	52	1	1	0	1	553	0	400
21	0	53	1	0	2	1	717	0	0
21	0	54	1	0	2	1	626	0	0
21	0	55	2	1	2	0	0	0	350
21	0	56	2	0	2	2	683	0	0
21	0	57	2	1	0	2	624	0	400
21	0	58	2	0	2	2	725	0	0
21	0	59	1	0	2	1	546	0	0
21	0	60	1	0	2	1	598	0	0
21	0	61	2	1	2	0	0	0	350
21	0	62	2	0	2	2	560	0	0
21	0	63	1	0	2	1	668	0	0
21	1	0	2	1	2	0	0	0	400
21	1	1	2	0	2	2	668	0	0
21	1	2	2	0	2	2	544	0	0
21	1	3	1	0	2	1	621	0	0
21	1	4	1	0	2	1	610	0	0
21	1	5	2	0	2	2	599	0	0
21	1	6	1	0	2	1	507	0	0
21	1	7	2	0	2	2	720	0	0
21	1	8	1	0	2	1	573	0	0
21	1	9	1	0	2	1	601	0	0
21	1	10	1	0	2	1	646	0	0
21	1	11	2	1	0	2	491	0	450
21	1	12	1	1	2	0	0	0	400
21	1	13	1	0	2	1	564	0	0
21	1	14	2	1	2	0	0	0	450
21	1	15	2	0	2	2	533	0	0
21	1	16	1	0	2	1	642	0	0
21	1	17	2	0	2	2	687	10	0
21	1	18	1	1	2	0	0	0	500
21	1	19	1	0	2	1	472	0	0
21	1	20	1	0	2	1	661	0	0
21	1	21	2	0	2	2	802	0	0
21	1	22	1	0	2	1	766	0	0
21	1	23	1	1	0	1	707	0	550
21	1	24	2	0	2	2	672	0	0
21	1	25	1	1	2	0	0	0	500
21	1	26	1	1	2	0	0	0	550
21	1	27	2	0	2	2	550	0	0
21	1	28	1	0	2	1	650	0	0
21	1	29	1	0	2	1	671	0	0
21	1	30	1	1	0	1	708	0	600
21	1	31	1	0	2	1	881	0	0
21	1	32	1	0	2	1	637	0	0
21	1	33	1	0	2	1	618	0	0
21	1	34	2	0	2	2	551	0	0
21	1	35	2	1	2	0	0	0	550
21	1	36	1	0	2	1	864	0	0
21	1	37	2	1	2	0	0	0	600
21	1	38	2	0	2	2	561	0	0
21	1	39	2	0	2	2	622	12	0
21	1	40	1	0	2	1	811	0	0
21	1	41	2	1	0	2	623	0	650
21	1	42	1	0	2	1	492	0	0
21	1	43	2	0	2	2	505	0	0
21	1	44	2	0	2	2	701	0	0
21	1	45	2	0	2	2	634	0	0
21	1	46	2	0	2	2	495	0	0
21	1	47	1	0	2	1	628	0	0
21	1	48	2	1	0	2	616	0	600
21	1	49	1	0	2	1	541	0	0
21	1	50	1	1	0	1	650	0	550
21	1	51	2	0	2	2	566	0	0
21	1	52	2	0	2	2	491	0	0
21	1	53	2	0	2	2	448	0	0
21	1	54	1	0	2	1	844	0	0
21	1	55	2	0	2	2	1105	0	0
21	1	56	1	1	0	1	518	0	500
21	1	57	1	0	2	1	874	0	0
21	1	58	2	0	2	2	639	0	0
21	1	59	2	0	2	2	740	0	0
21	1	60	2	1	2	0	0	0	450
21	1	61	2	0	2	2	661	0	0
21	1	62	2	0	2	2	794	-8	0
21	1	63	1	0	2	1	655	0	0
21	2	0	1	0	2	1	795	0	0
21	2	1	2	0	2	2	568	0	0
21	2	2	1	0	2	1	621	0	0
21	2	3	2	0	2	2	537	0	0
21	2	4	2	0	2	2	478	-12	0
21	2	5	2	0	2	2	547	0	0
21	2	6	1	1	0	1	632	0	500
21	2	7	1	1	0	1	692	0	450
21	2	8	1	1	2	0	0	0	400
21	2	9	2	0	2	2	390	0	0
21	2	10	2	0	2	2	666	0	0
21	2	11	1	0	2	1	671	0	0
21	2	12	2	0	2	2	492	0	0
21	2	13	1	1	2	0	0	0	450
21	2	14	2	1	0	2	549	0	500
21	2	15	2	0	2	2	530	0	0
21	2	16	1	0	2	1	694	0	0
21	2	17	2	1	0	2	491	0	450
21	2	18	2	0	2	2	736	0	0
21	2	19	2	0	2	2	708	0	0
21	2	20	1	1	2	0	0	0	400
21	2	21	2	0	2	2	566	0	0
21	2	22	2	0	2	2	483	0	0
21	2	23	2	1	0	2	559	0	450
21	2	24	1	0	2	1	684	0	0
21	2	25	1	0	2	1	825	0	0
21	2	26	1	0	2	1	741	0	0
21	2	27	1	0	2	1	850	0	0
21	2	28	2	1	2	0	0	0	400
21	2	29	1	0	2	1	531	0	0
21	2	30	2	0	2	2	656	0	0
21	2	31	2	1	0	2	565	0	450
21	2	32	2	0	2	2	625	0	0
21	2	33	2	0	2	2	470	0	0
21	2	34	1	1	0	1	491	0	400
21	2	35	2	0	2	2	504	0	0
21	2	36	2	0	2	2	548	0	0
21	2	37	1	0	2	1	537	0	0
21	2	38	2	0	2	2	582	0	0
21	2	39	1	0	2	1	578	0	0
21	2	40	1	0	2	1	559	0	0
21	2	41	1	0	2	1	436	0	0
21	2	42	1	0	2	1	448	0	0
21	2	43	1	1	2	0	0	0	350
21	2	44	1	1	0	1	642	0	400
21	2	45	2	1	0	2	518	0	350
21	2	46	1	0	2	1	515	0	0
21	2	47	2	0	2	2	616	0	0
21	2	48	1	0	2	1	573	0	0
21	2	49	2	0	2	2	681	0	0
21	2	50	1	0	2	1	478	0	0
21	2	51	1	0	2	1	427	0	0
21	2	52	2	0	2	2	391	0	0
21	2	53	2	1	0	2	364	0	300
21	2	54	1	0	2	1	537	0	0
21	2	55	2	0	2	2	437	0	0
21	2	56	2	0	2	2	506	0	0
21	2	57	2	0	2	2	447	0	0
21	2	58	2	1	2	0	0	0	250
21	2	59	1	0	2	1	488	-9	0
21	2	60	1	0	2	1	501	0	0
21	2	61	1	0	2	1	505	0	0
21	2	62	1	0	2	1	510	0	0
21	2	63	1	0	2	1	595	0	0
22	0	0	1	0	2	1	667	0	0
22	0	1	1	0	2	1	631	0	0
22	0	2	1	0	2	1	564	0	0
22	0	3	1	1	0	1	649	0	450
22	0	4	2	0	2	2	597	0	0
22	0	5	1	0	2	1	642	0	0
22	0	6	2	0	2	2	671	0	0
22	0	7	2	0	2	2	835	0	0
22	0	8	1	0	2	1	656	0	0
22	0	9	1	1	2	0	0	0	400
22	0	10	1	0	2	1	617	0	0
22	0	11	1	1	2	0	0	0	450
22	0	12	2	1	0	2	651	0	500
22	0	13	2	0	2	2	656	0	0
22	0	14	1	0	2	1	716	0	0
22	0	15	2	1	2	0	0	0	450
22	0	16	1	0	2	1	822	0	0
22	0	17	1	1	2	0	0	0	500
22	0	18	1	0	2	1	895	0	0
22	0	19	2	0	2	2	700	0	0
22	0	20	1	1	0	1	680	0	550
22	0	21	1	1	2	0	0	0	500
22	0	22	2	1	0	2	722	0	550
22	0	23	1	0	2	1	974	0	0
22	0	24	2	1	2	0	0	0	500
22	0	25	2	1	2	0	0	0	550
22	0	26	2	0	2	2	708	0	0
22	0	27	1	0	2	1	721	0	0
22	0	28	1	0	2	1	942	-12	0
22	0	29	2	0	2	2	603	0	0
22	0	30	1	1	2	0	0	0	600
22	0	31	2	1	0	2	740	0	650
22	0	32	2	0	2	2	737	0	0
22	0	33	2	0	2	2	773	0	0
22	0	34	1	0	2	1	826	0	0
22	0	35	2	0	2	2	823	0	0
22	0	36	2	0	2	2	931	0	0
22	0	37	2	0	2	2	952	0	0
22	0	38	1	0	2	1	877	0	0
22	0	39	2	1	0	2	825	0	600
22	0	40	1	0	2	1	934	0	0
22	0	41	1	1	2	0	0	0	550
22	0	42	1	0	2	1	927	0	0
22	0	43	2	0	2	2	1092	0	0
22	0	44	2	0	2	2	1025	8	0
22	0	45	2	0	2	2	966	0	0
22	0	46	1	0	2	1	946	0	0
22	0	47	2	0	2	2	887	0	0
22	0	48	1	0	2	1	852	0	0
22	0	49	2	1	0	2	768	0	600
22	0	50	1	0	2	1	781	0	0
22	0	51	1	0	2	1	922	0	0
22	0	52	1	0	2	1	998	0	0
22	0	53	2	0	2	2	811	0	0
22	0	54	2	0	2	2	1056	0	0
22	0	55	1	0	2	1	941	0	0
22	0	56	2	0	2	2	921	0	0
22	0	57	2	0	2	2	934	0	0
22	0	58	2	0	2	2	923	0	0
22	0	59	2	0	2	2	879	0	0
22	0	60	2	0	2	2	876	0	0
22	0	61	2	0	2	2	945	0	0
22	0	62	1	0	2	1	853	0	0
22	0	63	1	0	2	1	786	0	0
22	1	0	1	0	2	1	772	0	0
22	1	1	1	0	2	1	617	0	0
22	1	2	1	0	2	1	710	0	0
22	1	3	1	0	2	1	850	0	0
22	1	4	1	1	2	0	0	0	550
22	1	5	2	0	2	2	860	0	0
22	1	6	2	0	2	2	912	0	0
22	1	7	1	0	2	1	781	0	0
22	1	8	2	1	0	2	802	0	600
22	1	9	2	0	2	2	1126	0	0
22	1	10	1	0	2	1	963	0	0
22	1	11	1	0	2	1	984	0	0
22	1	12	2	1	2	0	0	0	550
22	1	13	2	1	2	0	0	0	600
22	1	14	2	0	2	2	1022	0	0
22	1	15	1	0	2	1	971	0	0
22	1	16	1	0	2	1	871	0	0
22	1	17	1	1	2	0	0	0	650
22	1	18	2	0	2	2	889	0	0
22	1	19	2	1	2	0	0	0	700
22	1	20	1	0	2	1	882	0	0
22	1	21	1	1	0	1	1231	0	750
22	1	22	1	0	2	1	1011	0	0
22	1	23	2	0	2	2	1072	8	0
22	1	24	2	0	2	2	1069	0	0
22	1	25	1	0	2	1	961	0	0
22	1	26	2	1	2	0	0	0	700
22	1	27	2	0	2	2	931	0	0
22	1	28	1	0	2	1	879	0	0
22	1	29	2	0	2	2	1100	0	0
22	1	30	1	1	2	0	0	0	750
22	1	31	1	0	2	1	942	0	0
22	1	32	2	0	2	2	786	0	0
22	1	33	1	0	2	1	1015	-14	0
22	1	34	1	0	2	1	1060	0	0
22	1	35	2	0	2	2	840	0	0
22	1	36	1	1	0	1	933	0	800
22	1	37	1	0	2	1	1050	0	0
22	1	38	2	0	2	2	926	0	0
22	1	39	2	0	2	2	923	0	0
22	1	40	1	0	2	1	952	0	0
22	1	41	2	0	2	2	1076	0	0
22	1	42	1	1	2	0	0	0	750
22	1	43	2	0	2	2	974	0	0
22	1	44	2	0	2	2	979	0	0
22	1	45	2	0	2	2	1047	0	0
22	1	46	2	0	2	2	876	0	0
22	1	47	2	0	2	2	1009	0	0
22	1	48	1	1	2	0	0	0	800
22	1	49	1	0	2	1	922	0	0
22	1	50	2	0	2	2	959	0	0
22	1	51	2	1	0	2	859	0	850
22	1	52	2	1	0	2	1016	0	800
22	1	53	1	1	2	0	0	0	750
22	1	54	1	0	2	1	1153	0	0
22	1	55	2	0	2	2	990	0	0
22	1	56	1	0	2	1	1067	8	0
22	1	57	2	0	2	2	1144	0	0
22	1	58	1	0	2	1	1036	-11	0
22	1	59	1	0	2	1	1073	0	0
22	1	60	2	0	2	2	1102	0	0
22	1	61	1	0	2	1	810	0	0
22	1	62	2	1	0	2	919	0	800
22	1	63	2	0	2	2	1132	0	0
22	2	0	2	1	0	2	566	0	750
22	2	1	1	0	2	1	915	0	0
22	2	2	2	0	2	2	856	0	0
22	2	3	1	1	2	0	0	0	700
22	2	4	2	0	2	2	905	0	0
22	2	5	1	0	2	1	1022	0	0
22	2	6	2	0	2	2	1027	0	0
22	2	7	1	0	2	1	967	0	0
22	2	8	2	0	2	2	1028	0	0
22	2	9	1	1	0	1	1009	0	750
22	2	10	1	0	2	1	909	0	0
22	2	11	2	0	2	2	994	0	0
22	2	12	2	1	2	0	0	0	700
22	2	13	1	0	2	1	963	0	0
22	2	14	2	0	2	2	1040	0	0
22	2	15	1	0	2	1	997	0	0
22	2	16	2	1	2	0	0	0	750
22	2	17	1	0	2	1	1054	0	0
22	2	18	2	0	2	2	1131	0	0
22	2	19	1	1	2	0	0	0	800
22	2	20	2	0	0	1	1228	0	0
22	2	21	1	0	2	1	1113	0	0
22	2	22	2	1	0	2	1110	0	850
22	2	23	2	0	0	0	0	0	0
22	2	24	2	0	2	2	1071	0	0
22	2	25	1	0	2	1	916	0	0
22	2	26	1	0	2	1	896	0	0
22	2	27	2	0	2	2	869	0	0
22	2	28	2	0	2	2	970	0	0
22	2	29	2	0	2	2	974	0	0
22	2	30	2	0	2	2	979	0	0
22	2	31	1	0	2	1	984	0	0
22	2	32	2	1	2	0	0	0	800
22	2	33	2	0	2	2	1153	0	0
22	2	34	1	0	2	1	1022	0	0
22	2	35	1	0	2	1	947	0	0
22	2	36	2	0	2	2	1031	0	0
22	2	37	1	1	2	0	0	0	850
22	2	38	1	0	2	1	1121	0	0
22	2	39	2	0	2	2	1085	0	0
22	2	40	1	0	2	1	1018	0	0
22	2	41	1	0	2	1	1111	0	0
22	2	42	2	0	2	2	1027	0	0
22	2	43	1	1	2	0	0	0	900
22	2	44	2	0	2	2	1173	0	0
22	2	45	2	1	0	2	1074	0	950
22	2	46	1	1	2	0	0	0	900
22	2	47	1	0	2	1	1083	0	0
22	2	48	1	1	0	1	1064	0	950
22	2	49	1	0	0	0	0	0	0
22	2	50	1	0	2	1	825	0	0
22	2	51	2	0	2	2	646	0	0
