"Subject"	"Block"	"Procedure.Block."	"Trial"	"condition"	"fontcolor"	"Word.ACC"	"Word.RT"	"Out"
107	2	"CongProc1"	2	"Cong"	"red"	1	881	0
107	2	"CongProc1"	7	"Cong"	"green"	1	616	0
107	2	"CongProc1"	8	"Cong"	"red"	1	586	0
107	2	"CongProc1"	9	"Cong"	"yellow"	1	623	0
107	2	"CongProc1"	15	"Cong"	"yellow"	1	731	0
107	2	"CongProc1"	17	"Cong"	"red"	1	768	0
107	2	"CongProc1"	18	"Cong"	"blue"	1	654	0
107	2	"CongProc1"	19	"Cong"	"green"	1	576	0
107	2	"CongProc1"	20	"Cong"	"yellow"	1	380	0
107	2	"CongProc1"	22	"Cong"	"red"	1	572	0
107	2	"CongProc1"	23	"Cong"	"green"	1	730	0
107	2	"CongProc1"	25	"Cong"	"yellow"	1	551	0
107	2	"CongProc1"	26	"Cong"	"blue"	1	533	0
107	2	"CongProc1"	27	"Cong"	"red"	1	748	0
107	2	"CongProc1"	28	"Cong"	"green"	1	594	0
107	2	"CongProc1"	29	"Cong"	"green"	1	478	0
107	2	"CongProc1"	30	"Cong"	"blue"	1	590	0
107	2	"CongProc1"	31	"Cong"	"yellow"	1	531	0
107	2	"CongProc1"	32	"Cong"	"red"	1	538	0
107	2	"CongProc1"	33	"Cong"	"yellow"	1	592	0
107	2	"CongProc1"	34	"Cong"	"red"	1	956	0
107	2	"CongProc1"	36	"Cong"	"green"	1	680	0
107	2	"CongProc1"	37	"Cong"	"red"	1	561	0
107	2	"CongProc1"	38	"Cong"	"yellow"	1	678	0
107	2	"CongProc1"	39	"Cong"	"blue"	1	807	0
107	2	"CongProc1"	41	"Cong"	"yellow"	1	696	0
107	2	"CongProc1"	44	"Cong"	"red"	1	508	0
107	2	"CongProc1"	45	"Cong"	"red"	1	531	0
107	2	"CongProc1"	46	"Cong"	"blue"	1	738	0
107	2	"CongProc1"	47	"Cong"	"green"	1	896	0
107	2	"CongProc1"	48	"Cong"	"yellow"	1	616	0
107	3	"CongProc2"	1	"Cong"	"red"	1	685	0
107	3	"CongProc2"	2	"Cong"	"blue"	1	862	0
107	3	"CongProc2"	3	"Cong"	"yellow"	1	583	0
107	3	"CongProc2"	4	"Cong"	"green"	1	420	0
107	3	"CongProc2"	5	"Cong"	"red"	1	559	0
107	3	"CongProc2"	6	"Cong"	"blue"	1	485	0
107	3	"CongProc2"	7	"Cong"	"green"	1	557	0
107	3	"CongProc2"	8	"Cong"	"yellow"	1	363	0
107	3	"CongProc2"	9	"Cong"	"red"	1	457	0
107	3	"CongProc2"	10	"Cong"	"blue"	1	387	0
107	3	"CongProc2"	11	"Cong"	"green"	1	455	0
107	3	"CongProc2"	12	"Cong"	"yellow"	1	321	0
107	3	"CongProc2"	16	"Cong"	"yellow"	1	639	0
107	3	"CongProc2"	17	"Cong"	"red"	1	545	0
107	3	"CongProc2"	18	"Cong"	"green"	1	727	0
107	3	"CongProc2"	19	"Cong"	"yellow"	1	486	0
107	3	"CongProc2"	20	"Cong"	"blue"	1	831	0
107	3	"CongProc2"	21	"Cong"	"red"	1	689	0
107	3	"CongProc2"	22	"Cong"	"blue"	1	730	0
107	3	"CongProc2"	24	"Cong"	"green"	1	756	0
107	3	"CongProc2"	25	"Cong"	"yellow"	1	633	0
107	3	"CongProc2"	26	"Cong"	"green"	1	540	0
107	3	"CongProc2"	27	"Cong"	"red"	1	667	0
107	3	"CongProc2"	28	"Cong"	"blue"	1	548	0
107	3	"CongProc2"	29	"Cong"	"green"	1	522	0
107	3	"CongProc2"	30	"Cong"	"yellow"	1	497	0
107	3	"CongProc2"	32	"Cong"	"red"	1	879	0
107	3	"CongProc2"	33	"Cong"	"yellow"	1	936	0
107	3	"CongProc2"	35	"Cong"	"blue"	1	491	0
107	3	"CongProc2"	36	"Cong"	"red"	1	707	0
107	3	"CongProc2"	37	"Cong"	"red"	1	459	0
107	3	"CongProc2"	38	"Cong"	"green"	1	596	0
107	3	"CongProc2"	39	"Cong"	"blue"	1	576	0
107	3	"CongProc2"	40	"Cong"	"yellow"	1	589	0
107	3	"CongProc2"	41	"Cong"	"green"	1	617	0
107	3	"CongProc2"	42	"Cong"	"yellow"	1	733	0
107	3	"CongProc2"	43	"Cong"	"red"	1	611	0
107	3	"CongProc2"	44	"Cong"	"blue"	1	479	0
107	3	"CongProc2"	45	"Cong"	"green"	1	775	0
107	3	"CongProc2"	46	"Cong"	"blue"	1	716	0
107	3	"CongProc2"	47	"Cong"	"yellow"	1	604	0
107	3	"CongProc2"	48	"Cong"	"red"	1	696	0
107	5	"IncongProc1"	2	"Incong"	"red"	1	734	0
107	5	"IncongProc1"	3	"Incong"	"blue"	1	1013	0
107	5	"IncongProc1"	4	"Incong"	"red"	1	848	0
107	5	"IncongProc1"	5	"Incong"	"yellow"	1	1570	0
107	5	"IncongProc1"	6	"Incong"	"yellow"	1	1136	0
107	5	"IncongProc1"	7	"Incong"	"red"	1	662	0
107	5	"IncongProc1"	8	"Incong"	"blue"	1	880	0
107	5	"IncongProc1"	9	"Incong"	"green"	1	1464	0
107	5	"IncongProc1"	10	"Incong"	"green"	1	586	0
107	5	"IncongProc1"	11	"Incong"	"yellow"	1	662	0
107	5	"IncongProc1"	12	"Incong"	"green"	1	1528	0
107	5	"IncongProc1"	13	"Incong"	"green"	1	1014	0
107	5	"IncongProc1"	14	"Incong"	"red"	1	1290	0
107	5	"IncongProc1"	15	"Incong"	"yellow"	1	1674	0
107	5	"IncongProc1"	16	"Incong"	"green"	1	858	0
107	5	"IncongProc1"	17	"Incong"	"blue"	1	644	0
107	5	"IncongProc1"	18	"Incong"	"yellow"	1	1342	0
107	5	"IncongProc1"	19	"Incong"	"blue"	1	844	0
107	5	"IncongProc1"	20	"Incong"	"green"	1	774	0
107	5	"IncongProc1"	21	"Incong"	"red"	1	651	0
107	5	"IncongProc1"	22	"Incong"	"blue"	1	917	0
107	5	"IncongProc1"	23	"Incong"	"red"	1	996	0
107	5	"IncongProc1"	24	"Incong"	"yellow"	1	817	0
107	5	"IncongProc1"	25	"Incong"	"yellow"	1	772	0
107	5	"IncongProc1"	26	"Incong"	"green"	1	697	0
107	5	"IncongProc1"	27	"Incong"	"blue"	1	1337	0
107	5	"IncongProc1"	29	"Incong"	"yellow"	1	565	0
107	5	"IncongProc1"	30	"Incong"	"green"	1	1139	0
107	5	"IncongProc1"	31	"Incong"	"green"	1	601	0
107	5	"IncongProc1"	32	"Incong"	"red"	1	1429	0
107	5	"IncongProc1"	33	"Incong"	"blue"	1	768	0
107	5	"IncongProc1"	34	"Incong"	"red"	1	797	0
107	5	"IncongProc1"	35	"Incong"	"blue"	1	649	0
107	5	"IncongProc1"	36	"Incong"	"red"	1	707	0
107	5	"IncongProc1"	37	"Incong"	"green"	1	683	0
107	5	"IncongProc1"	38	"Incong"	"red"	1	972	0
107	5	"IncongProc1"	39	"Incong"	"green"	1	937	0
107	5	"IncongProc1"	40	"Incong"	"yellow"	1	616	0
107	5	"IncongProc1"	41	"Incong"	"red"	1	995	0
107	5	"IncongProc1"	44	"Incong"	"blue"	1	1201	0
107	5	"IncongProc1"	45	"Incong"	"green"	1	909	0
107	5	"IncongProc1"	46	"Incong"	"blue"	1	741	0
107	5	"IncongProc1"	47	"Incong"	"yellow"	1	939	0
107	5	"IncongProc1"	48	"Incong"	"blue"	1	929	0
107	6	"IncongProc2"	1	"Incong"	"green"	1	1707	0
107	6	"IncongProc2"	2	"Incong"	"yellow"	1	947	0
107	6	"IncongProc2"	3	"Incong"	"yellow"	1	681	0
107	6	"IncongProc2"	4	"Incong"	"green"	1	745	0
107	6	"IncongProc2"	5	"Incong"	"red"	1	687	0
107	6	"IncongProc2"	6	"Incong"	"red"	1	904	0
107	6	"IncongProc2"	7	"Incong"	"yellow"	1	656	0
107	6	"IncongProc2"	8	"Incong"	"blue"	1	1209	0
107	6	"IncongProc2"	9	"Incong"	"blue"	1	589	0
107	6	"IncongProc2"	11	"Incong"	"blue"	1	833	0
107	6	"IncongProc2"	16	"Incong"	"blue"	1	1104	0
107	6	"IncongProc2"	17	"Incong"	"green"	1	1296	0
107	6	"IncongProc2"	18	"Incong"	"red"	1	736	0
107	6	"IncongProc2"	19	"Incong"	"red"	1	622	0
107	6	"IncongProc2"	20	"Incong"	"yellow"	1	617	0
107	6	"IncongProc2"	21	"Incong"	"blue"	1	964	0
107	6	"IncongProc2"	23	"Incong"	"red"	1	1714	0
107	6	"IncongProc2"	24	"Incong"	"green"	1	1090	0
107	6	"IncongProc2"	25	"Incong"	"red"	1	978	0
107	6	"IncongProc2"	26	"Incong"	"blue"	1	966	0
107	6	"IncongProc2"	28	"Incong"	"yellow"	1	593	0
107	6	"IncongProc2"	29	"Incong"	"green"	1	757	0
107	6	"IncongProc2"	30	"Incong"	"green"	1	442	0
107	6	"IncongProc2"	31	"Incong"	"blue"	1	548	0
107	6	"IncongProc2"	32	"Incong"	"red"	1	562	0
107	6	"IncongProc2"	33	"Incong"	"yellow"	1	808	0
107	6	"IncongProc2"	34	"Incong"	"green"	1	627	0
107	6	"IncongProc2"	35	"Incong"	"red"	1	1334	0
107	6	"IncongProc2"	36	"Incong"	"blue"	1	956	0
107	6	"IncongProc2"	37	"Incong"	"green"	1	1442	0
107	6	"IncongProc2"	38	"Incong"	"yellow"	1	693	0
107	6	"IncongProc2"	42	"Incong"	"red"	1	573	0
107	6	"IncongProc2"	43	"Incong"	"yellow"	1	1003	0
107	6	"IncongProc2"	44	"Incong"	"blue"	1	1151	0
107	6	"IncongProc2"	45	"Incong"	"blue"	1	493	0
107	6	"IncongProc2"	46	"Incong"	"green"	1	701	0
107	6	"IncongProc2"	47	"Incong"	"red"	1	1341	0
107	6	"IncongProc2"	48	"Incong"	"yellow"	1	635	0
107	7	"IncongProc3"	4	"Incong"	"blue"	1	556	0
107	7	"IncongProc3"	5	"Incong"	"blue"	1	434	0
107	7	"IncongProc3"	6	"Incong"	"red"	1	581	0
107	7	"IncongProc3"	7	"Incong"	"green"	1	634	0
107	7	"IncongProc3"	8	"Incong"	"red"	1	876	0
107	7	"IncongProc3"	9	"Incong"	"green"	1	1549	0
107	7	"IncongProc3"	10	"Incong"	"yellow"	1	1099	0
107	7	"IncongProc3"	11	"Incong"	"yellow"	1	659	0
107	7	"IncongProc3"	12	"Incong"	"green"	1	1483	0
107	7	"IncongProc3"	13	"Incong"	"red"	1	668	0
107	7	"IncongProc3"	14	"Incong"	"blue"	1	1006	0
107	7	"IncongProc3"	15	"Incong"	"red"	1	657	0
107	7	"IncongProc3"	16	"Incong"	"yellow"	1	610	0
107	7	"IncongProc3"	17	"Incong"	"blue"	1	757	0
107	7	"IncongProc3"	18	"Incong"	"green"	1	595	0
107	7	"IncongProc3"	19	"Incong"	"red"	1	1423	0
107	7	"IncongProc3"	20	"Incong"	"green"	1	1018	0
107	7	"IncongProc3"	21	"Incong"	"yellow"	1	813	0
107	7	"IncongProc3"	22	"Incong"	"blue"	1	665	0
107	7	"IncongProc3"	23	"Incong"	"green"	1	706	0
107	7	"IncongProc3"	24	"Incong"	"yellow"	1	434	0
107	7	"IncongProc3"	25	"Incong"	"green"	1	877	0
107	7	"IncongProc3"	26	"Incong"	"red"	1	669	0
107	7	"IncongProc3"	27	"Incong"	"blue"	1	607	0
107	7	"IncongProc3"	28	"Incong"	"red"	1	1427	0
107	7	"IncongProc3"	29	"Incong"	"yellow"	1	597	0
107	7	"IncongProc3"	30	"Incong"	"yellow"	1	481	0
107	7	"IncongProc3"	31	"Incong"	"green"	1	858	0
107	7	"IncongProc3"	32	"Incong"	"blue"	1	564	0
107	7	"IncongProc3"	33	"Incong"	"blue"	1	609	0
107	7	"IncongProc3"	36	"Incong"	"red"	1	1104	0
107	7	"IncongProc3"	37	"Incong"	"green"	1	896	0
107	7	"IncongProc3"	38	"Incong"	"yellow"	1	1096	0
107	7	"IncongProc3"	39	"Incong"	"blue"	1	928	0
107	7	"IncongProc3"	40	"Incong"	"blue"	1	663	0
107	7	"IncongProc3"	41	"Incong"	"yellow"	1	1232	0
107	7	"IncongProc3"	42	"Incong"	"blue"	1	691	0
107	7	"IncongProc3"	43	"Incong"	"red"	1	1003	0
107	7	"IncongProc3"	44	"Incong"	"yellow"	1	1543	0
107	7	"IncongProc3"	45	"Incong"	"green"	1	1677	0
107	7	"IncongProc3"	46	"Incong"	"red"	1	878	0
107	7	"IncongProc3"	48	"Incong"	"red"	1	1378	0
110	2	"CongProc1"	2	"Cong"	"yellow"	1	531	0
110	2	"CongProc1"	3	"Cong"	"red"	1	674	0
110	2	"CongProc1"	4	"Cong"	"blue"	1	531	0
110	2	"CongProc1"	5	"Cong"	"red"	1	865	0
110	2	"CongProc1"	6	"Cong"	"green"	1	731	0
110	2	"CongProc1"	7	"Cong"	"yellow"	1	489	0
110	2	"CongProc1"	8	"Cong"	"blue"	1	465	0
110	2	"CongProc1"	9	"Cong"	"blue"	1	483	0
110	2	"CongProc1"	10	"Cong"	"green"	1	1131	0
110	2	"CongProc1"	11	"Cong"	"red"	1	746	0
110	2	"CongProc1"	12	"Cong"	"yellow"	1	584	0
110	2	"CongProc1"	13	"Cong"	"green"	1	701	0
110	2	"CongProc1"	14	"Cong"	"yellow"	1	685	0
110	2	"CongProc1"	15	"Cong"	"blue"	1	686	0
110	2	"CongProc1"	16	"Cong"	"red"	1	774	0
110	2	"CongProc1"	17	"Cong"	"red"	1	563	0
110	2	"CongProc1"	18	"Cong"	"yellow"	1	648	0
110	2	"CongProc1"	19	"Cong"	"blue"	1	1058	0
110	2	"CongProc1"	20	"Cong"	"green"	1	732	0
110	2	"CongProc1"	21	"Cong"	"red"	1	586	0
110	2	"CongProc1"	23	"Cong"	"yellow"	1	438	0
110	2	"CongProc1"	24	"Cong"	"blue"	1	537	0
110	2	"CongProc1"	25	"Cong"	"red"	1	840	0
110	2	"CongProc1"	26	"Cong"	"green"	1	1010	0
110	2	"CongProc1"	27	"Cong"	"yellow"	1	526	0
110	2	"CongProc1"	28	"Cong"	"blue"	1	549	0
110	2	"CongProc1"	29	"Cong"	"red"	1	571	0
110	2	"CongProc1"	30	"Cong"	"green"	1	1064	0
110	2	"CongProc1"	31	"Cong"	"blue"	1	714	0
110	2	"CongProc1"	32	"Cong"	"yellow"	1	505	0
110	2	"CongProc1"	35	"Cong"	"yellow"	1	564	0
110	2	"CongProc1"	36	"Cong"	"red"	1	593	0
110	2	"CongProc1"	37	"Cong"	"yellow"	1	733	0
110	2	"CongProc1"	39	"Cong"	"red"	1	1125	0
110	2	"CongProc1"	40	"Cong"	"blue"	1	708	0
110	2	"CongProc1"	41	"Cong"	"blue"	1	548	0
110	2	"CongProc1"	42	"Cong"	"green"	1	1010	0
110	2	"CongProc1"	43	"Cong"	"red"	1	629	0
110	2	"CongProc1"	44	"Cong"	"yellow"	1	528	0
110	2	"CongProc1"	45	"Cong"	"yellow"	1	486	0
110	2	"CongProc1"	46	"Cong"	"green"	1	687	0
110	2	"CongProc1"	47	"Cong"	"blue"	1	624	0
110	2	"CongProc1"	48	"Cong"	"red"	1	538	0
110	3	"CongProc2"	2	"Cong"	"green"	1	746	0
110	3	"CongProc2"	3	"Cong"	"red"	1	592	0
110	3	"CongProc2"	4	"Cong"	"yellow"	1	484	0
110	3	"CongProc2"	5	"Cong"	"green"	1	645	0
110	3	"CongProc2"	6	"Cong"	"red"	1	679	0
110	3	"CongProc2"	7	"Cong"	"blue"	1	552	0
110	3	"CongProc2"	8	"Cong"	"yellow"	1	526	0
110	3	"CongProc2"	9	"Cong"	"red"	1	797	0
110	3	"CongProc2"	11	"Cong"	"green"	1	571	0
110	3	"CongProc2"	12	"Cong"	"yellow"	1	401	0
110	3	"CongProc2"	13	"Cong"	"yellow"	1	461	0
110	3	"CongProc2"	14	"Cong"	"blue"	1	742	0
110	3	"CongProc2"	15	"Cong"	"red"	1	636	0
110	3	"CongProc2"	16	"Cong"	"green"	1	855	0
110	3	"CongProc2"	17	"Cong"	"yellow"	1	633	0
110	3	"CongProc2"	18	"Cong"	"blue"	1	1059	0
110	3	"CongProc2"	19	"Cong"	"red"	1	581	0
110	3	"CongProc2"	20	"Cong"	"green"	1	1145	0
110	3	"CongProc2"	21	"Cong"	"blue"	1	719	0
110	3	"CongProc2"	22	"Cong"	"green"	1	727	0
110	3	"CongProc2"	23	"Cong"	"red"	1	685	0
110	3	"CongProc2"	24	"Cong"	"yellow"	1	422	0
110	3	"CongProc2"	25	"Cong"	"green"	1	961	0
110	3	"CongProc2"	26	"Cong"	"red"	1	855	0
110	3	"CongProc2"	27	"Cong"	"blue"	1	769	0
110	3	"CongProc2"	28	"Cong"	"yellow"	1	534	0
110	3	"CongProc2"	29	"Cong"	"red"	1	1109	0
110	3	"CongProc2"	30	"Cong"	"blue"	1	1164	0
110	3	"CongProc2"	31	"Cong"	"yellow"	1	689	0
110	3	"CongProc2"	32	"Cong"	"green"	1	386	0
110	3	"CongProc2"	34	"Cong"	"yellow"	1	794	0
110	3	"CongProc2"	35	"Cong"	"red"	1	582	0
110	3	"CongProc2"	37	"Cong"	"red"	1	738	0
110	3	"CongProc2"	38	"Cong"	"green"	1	617	0
110	3	"CongProc2"	39	"Cong"	"blue"	1	708	0
110	3	"CongProc2"	40	"Cong"	"yellow"	1	1172	0
110	3	"CongProc2"	41	"Cong"	"green"	1	913	0
110	3	"CongProc2"	42	"Cong"	"red"	1	641	0
110	3	"CongProc2"	43	"Cong"	"yellow"	1	1130	0
110	3	"CongProc2"	44	"Cong"	"blue"	1	713	0
110	3	"CongProc2"	45	"Cong"	"yellow"	1	648	0
110	3	"CongProc2"	46	"Cong"	"red"	1	587	0
110	3	"CongProc2"	47	"Cong"	"green"	1	912	0
110	3	"CongProc2"	48	"Cong"	"blue"	1	670	0
110	5	"IncongProc1"	2	"Incong"	"green"	1	831	0
110	5	"IncongProc1"	3	"Incong"	"red"	1	1266	0
110	5	"IncongProc1"	4	"Incong"	"red"	1	851	0
110	5	"IncongProc1"	5	"Incong"	"yellow"	1	885	0
110	5	"IncongProc1"	6	"Incong"	"red"	1	590	0
110	5	"IncongProc1"	7	"Incong"	"yellow"	1	866	0
110	5	"IncongProc1"	8	"Incong"	"blue"	1	668	0
110	5	"IncongProc1"	9	"Incong"	"blue"	1	637	0
110	5	"IncongProc1"	10	"Incong"	"green"	1	528	0
110	5	"IncongProc1"	11	"Incong"	"blue"	1	558	0
110	5	"IncongProc1"	12	"Incong"	"yellow"	1	844	0
110	5	"IncongProc1"	13	"Incong"	"red"	1	486	0
110	5	"IncongProc1"	14	"Incong"	"green"	1	1102	0
110	5	"IncongProc1"	15	"Incong"	"yellow"	1	774	0
110	5	"IncongProc1"	16	"Incong"	"green"	1	707	0
110	5	"IncongProc1"	17	"Incong"	"green"	1	1011	0
110	5	"IncongProc1"	18	"Incong"	"red"	1	1038	0
110	5	"IncongProc1"	20	"Incong"	"blue"	1	491	0
110	5	"IncongProc1"	21	"Incong"	"yellow"	1	484	0
110	5	"IncongProc1"	22	"Incong"	"red"	1	676	0
110	5	"IncongProc1"	23	"Incong"	"yellow"	1	893	0
110	5	"IncongProc1"	24	"Incong"	"blue"	1	621	0
110	5	"IncongProc1"	25	"Incong"	"yellow"	1	1048	0
110	5	"IncongProc1"	26	"Incong"	"red"	1	874	0
110	5	"IncongProc1"	27	"Incong"	"yellow"	1	675	0
110	5	"IncongProc1"	28	"Incong"	"blue"	1	668	0
110	5	"IncongProc1"	29	"Incong"	"red"	1	981	0
110	5	"IncongProc1"	30	"Incong"	"blue"	1	858	0
110	5	"IncongProc1"	31	"Incong"	"green"	1	707	0
110	5	"IncongProc1"	32	"Incong"	"green"	1	555	0
110	5	"IncongProc1"	33	"Incong"	"blue"	1	817	0
110	5	"IncongProc1"	34	"Incong"	"green"	1	1453	0
110	5	"IncongProc1"	35	"Incong"	"yellow"	1	719	0
110	5	"IncongProc1"	36	"Incong"	"red"	1	1198	0
110	5	"IncongProc1"	37	"Incong"	"blue"	1	1106	0
110	5	"IncongProc1"	38	"Incong"	"green"	1	826	0
110	5	"IncongProc1"	39	"Incong"	"red"	1	1165	0
110	5	"IncongProc1"	40	"Incong"	"yellow"	1	994	0
110	5	"IncongProc1"	41	"Incong"	"red"	1	910	0
110	5	"IncongProc1"	42	"Incong"	"yellow"	1	1037	0
110	5	"IncongProc1"	43	"Incong"	"blue"	1	1200	0
110	5	"IncongProc1"	44	"Incong"	"green"	1	780	0
110	5	"IncongProc1"	45	"Incong"	"blue"	1	1257	0
110	5	"IncongProc1"	46	"Incong"	"green"	1	970	0
110	5	"IncongProc1"	47	"Incong"	"red"	1	751	0
110	5	"IncongProc1"	48	"Incong"	"yellow"	1	1181	0
110	6	"IncongProc2"	2	"Incong"	"green"	1	964	0
110	6	"IncongProc2"	3	"Incong"	"green"	1	713	0
110	6	"IncongProc2"	4	"Incong"	"red"	1	745	0
110	6	"IncongProc2"	8	"Incong"	"yellow"	1	1155	0
110	6	"IncongProc2"	9	"Incong"	"blue"	1	993	0
110	6	"IncongProc2"	10	"Incong"	"yellow"	1	1084	0
110	6	"IncongProc2"	11	"Incong"	"blue"	1	1349	0
110	6	"IncongProc2"	12	"Incong"	"yellow"	1	1204	0
110	6	"IncongProc2"	13	"Incong"	"blue"	1	647	0
110	6	"IncongProc2"	14	"Incong"	"yellow"	1	1305	0
110	6	"IncongProc2"	16	"Incong"	"green"	1	751	0
110	6	"IncongProc2"	17	"Incong"	"blue"	1	1085	0
110	6	"IncongProc2"	18	"Incong"	"red"	1	765	0
110	6	"IncongProc2"	19	"Incong"	"red"	1	1443	0
110	6	"IncongProc2"	20	"Incong"	"blue"	1	1157	0
110	6	"IncongProc2"	21	"Incong"	"red"	1	810	0
110	6	"IncongProc2"	23	"Incong"	"green"	1	933	0
110	6	"IncongProc2"	24	"Incong"	"yellow"	1	739	0
110	6	"IncongProc2"	26	"Incong"	"blue"	1	763	0
110	6	"IncongProc2"	27	"Incong"	"green"	1	696	0
110	6	"IncongProc2"	28	"Incong"	"green"	1	1352	0
110	6	"IncongProc2"	29	"Incong"	"yellow"	1	1206	0
110	6	"IncongProc2"	30	"Incong"	"blue"	1	1274	0
110	6	"IncongProc2"	31	"Incong"	"red"	1	1283	0
110	6	"IncongProc2"	37	"Incong"	"red"	1	650	0
110	6	"IncongProc2"	38	"Incong"	"yellow"	1	1068	0
110	6	"IncongProc2"	39	"Incong"	"blue"	1	941	0
110	6	"IncongProc2"	40	"Incong"	"yellow"	1	1132	0
110	6	"IncongProc2"	41	"Incong"	"blue"	1	842	0
110	6	"IncongProc2"	42	"Incong"	"green"	1	652	0
110	6	"IncongProc2"	43	"Incong"	"red"	1	790	0
110	6	"IncongProc2"	44	"Incong"	"red"	1	883	0
110	6	"IncongProc2"	45	"Incong"	"green"	1	908	0
110	7	"IncongProc3"	6	"Incong"	"yellow"	1	1340	0
110	7	"IncongProc3"	7	"Incong"	"red"	1	1082	0
110	7	"IncongProc3"	8	"Incong"	"green"	1	795	0
110	7	"IncongProc3"	9	"Incong"	"blue"	1	527	0
110	7	"IncongProc3"	10	"Incong"	"green"	1	862	0
110	7	"IncongProc3"	11	"Incong"	"red"	1	616	0
110	7	"IncongProc3"	12	"Incong"	"yellow"	1	603	0
110	7	"IncongProc3"	13	"Incong"	"yellow"	1	527	0
110	7	"IncongProc3"	14	"Incong"	"red"	1	750	0
110	7	"IncongProc3"	15	"Incong"	"blue"	1	844	0
110	7	"IncongProc3"	16	"Incong"	"green"	1	958	0
110	7	"IncongProc3"	17	"Incong"	"green"	1	580	0
110	7	"IncongProc3"	18	"Incong"	"yellow"	1	649	0
110	7	"IncongProc3"	19	"Incong"	"red"	1	890	0
110	7	"IncongProc3"	21	"Incong"	"blue"	1	947	0
110	7	"IncongProc3"	23	"Incong"	"blue"	1	807	0
110	7	"IncongProc3"	24	"Incong"	"yellow"	1	987	0
110	7	"IncongProc3"	25	"Incong"	"blue"	1	927	0
110	7	"IncongProc3"	26	"Incong"	"yellow"	1	798	0
110	7	"IncongProc3"	27	"Incong"	"blue"	1	490	0
110	7	"IncongProc3"	28	"Incong"	"green"	1	730	0
110	7	"IncongProc3"	29	"Incong"	"yellow"	1	929	0
110	7	"IncongProc3"	30	"Incong"	"red"	1	687	0
110	7	"IncongProc3"	31	"Incong"	"green"	1	792	0
110	7	"IncongProc3"	32	"Incong"	"blue"	1	708	0
110	7	"IncongProc3"	34	"Incong"	"red"	1	829	0
110	7	"IncongProc3"	35	"Incong"	"green"	1	1592	0
110	7	"IncongProc3"	37	"Incong"	"blue"	1	1518	0
110	7	"IncongProc3"	38	"Incong"	"green"	1	933	0
110	7	"IncongProc3"	39	"Incong"	"yellow"	1	740	0
110	7	"IncongProc3"	41	"Incong"	"blue"	1	1130	0
110	7	"IncongProc3"	42	"Incong"	"blue"	1	593	0
110	7	"IncongProc3"	43	"Incong"	"yellow"	1	1045	0
110	7	"IncongProc3"	44	"Incong"	"green"	1	895	0
110	7	"IncongProc3"	45	"Incong"	"red"	1	799	0
110	7	"IncongProc3"	46	"Incong"	"yellow"	1	851	0
110	7	"IncongProc3"	47	"Incong"	"red"	1	924	0
110	7	"IncongProc3"	48	"Incong"	"red"	1	508	0
113	2	"CongProc1"	1	"Cong"	"blue"	1	715	0
113	2	"CongProc1"	2	"Cong"	"red"	1	610	0
113	2	"CongProc1"	3	"Cong"	"green"	1	757	0
113	2	"CongProc1"	4	"Cong"	"yellow"	1	651	0
113	2	"CongProc1"	5	"Cong"	"red"	1	629	0
113	2	"CongProc1"	6	"Cong"	"green"	1	863	0
113	2	"CongProc1"	7	"Cong"	"blue"	1	609	0
113	2	"CongProc1"	8	"Cong"	"yellow"	1	668	0
113	2	"CongProc1"	10	"Cong"	"yellow"	1	765	0
113	2	"CongProc1"	11	"Cong"	"red"	1	730	0
113	2	"CongProc1"	12	"Cong"	"green"	1	673	0
113	2	"CongProc1"	13	"Cong"	"blue"	1	730	0
113	2	"CongProc1"	15	"Cong"	"red"	1	593	0
113	2	"CongProc1"	16	"Cong"	"yellow"	1	740	0
113	2	"CongProc1"	17	"Cong"	"blue"	1	675	0
113	2	"CongProc1"	18	"Cong"	"green"	1	788	0
113	2	"CongProc1"	20	"Cong"	"red"	1	605	0
113	2	"CongProc1"	21	"Cong"	"red"	1	562	0
113	2	"CongProc1"	22	"Cong"	"blue"	1	536	0
113	2	"CongProc1"	23	"Cong"	"green"	1	1021	0
113	2	"CongProc1"	24	"Cong"	"yellow"	1	817	0
113	2	"CongProc1"	25	"Cong"	"blue"	1	652	0
113	2	"CongProc1"	26	"Cong"	"green"	1	686	0
113	2	"CongProc1"	27	"Cong"	"yellow"	1	575	0
113	2	"CongProc1"	28	"Cong"	"red"	1	539	0
113	2	"CongProc1"	29	"Cong"	"red"	1	481	0
113	2	"CongProc1"	30	"Cong"	"blue"	1	530	0
113	2	"CongProc1"	31	"Cong"	"green"	1	617	0
113	2	"CongProc1"	32	"Cong"	"yellow"	1	908	0
113	2	"CongProc1"	33	"Cong"	"red"	1	491	0
113	2	"CongProc1"	34	"Cong"	"blue"	1	435	0
113	2	"CongProc1"	35	"Cong"	"yellow"	1	462	0
113	2	"CongProc1"	36	"Cong"	"green"	1	639	0
113	2	"CongProc1"	37	"Cong"	"yellow"	1	721	0
113	2	"CongProc1"	40	"Cong"	"blue"	1	590	0
113	2	"CongProc1"	41	"Cong"	"yellow"	1	539	0
113	2	"CongProc1"	43	"Cong"	"red"	1	499	0
113	2	"CongProc1"	44	"Cong"	"blue"	1	651	0
113	2	"CongProc1"	45	"Cong"	"red"	1	733	0
113	2	"CongProc1"	46	"Cong"	"blue"	1	579	0
113	2	"CongProc1"	47	"Cong"	"yellow"	1	768	0
113	2	"CongProc1"	48	"Cong"	"green"	1	438	0
113	3	"CongProc2"	1	"Cong"	"red"	1	838	0
113	3	"CongProc2"	3	"Cong"	"yellow"	1	841	0
113	3	"CongProc2"	4	"Cong"	"green"	1	764	0
113	3	"CongProc2"	5	"Cong"	"yellow"	1	801	0
113	3	"CongProc2"	6	"Cong"	"red"	1	525	0
113	3	"CongProc2"	8	"Cong"	"blue"	1	860	0
113	3	"CongProc2"	9	"Cong"	"yellow"	1	574	0
113	3	"CongProc2"	10	"Cong"	"red"	1	571	0
113	3	"CongProc2"	11	"Cong"	"green"	1	616	0
113	3	"CongProc2"	12	"Cong"	"blue"	1	420	0
113	3	"CongProc2"	13	"Cong"	"blue"	1	439	0
113	3	"CongProc2"	14	"Cong"	"yellow"	1	442	0
113	3	"CongProc2"	15	"Cong"	"green"	1	548	0
113	3	"CongProc2"	16	"Cong"	"red"	1	626	0
113	3	"CongProc2"	17	"Cong"	"blue"	1	428	0
113	3	"CongProc2"	18	"Cong"	"yellow"	1	495	0
113	3	"CongProc2"	19	"Cong"	"red"	1	559	0
113	3	"CongProc2"	20	"Cong"	"green"	1	508	0
113	3	"CongProc2"	21	"Cong"	"blue"	1	532	0
113	3	"CongProc2"	22	"Cong"	"yellow"	1	402	0
113	3	"CongProc2"	23	"Cong"	"red"	1	470	0
113	3	"CongProc2"	24	"Cong"	"green"	1	536	0
113	3	"CongProc2"	25	"Cong"	"green"	1	406	0
113	3	"CongProc2"	27	"Cong"	"blue"	1	841	0
113	3	"CongProc2"	28	"Cong"	"yellow"	1	412	0
113	3	"CongProc2"	30	"Cong"	"yellow"	1	508	0
113	3	"CongProc2"	31	"Cong"	"red"	1	492	0
113	3	"CongProc2"	32	"Cong"	"blue"	1	404	0
113	3	"CongProc2"	33	"Cong"	"blue"	1	440	0
113	3	"CongProc2"	35	"Cong"	"yellow"	1	946	0
113	3	"CongProc2"	36	"Cong"	"red"	1	880	0
113	3	"CongProc2"	37	"Cong"	"yellow"	1	601	0
113	3	"CongProc2"	38	"Cong"	"red"	1	621	0
113	3	"CongProc2"	39	"Cong"	"green"	1	856	0
113	3	"CongProc2"	40	"Cong"	"blue"	1	570	0
113	3	"CongProc2"	41	"Cong"	"yellow"	1	496	0
113	3	"CongProc2"	42	"Cong"	"blue"	1	520	0
113	3	"CongProc2"	43	"Cong"	"red"	1	607	0
113	3	"CongProc2"	44	"Cong"	"green"	1	771	0
113	3	"CongProc2"	45	"Cong"	"red"	1	544	0
113	3	"CongProc2"	46	"Cong"	"blue"	1	511	0
113	3	"CongProc2"	47	"Cong"	"green"	1	694	0
113	3	"CongProc2"	48	"Cong"	"yellow"	1	414	0
113	5	"IncongProc1"	1	"Incong"	"green"	1	1038	0
113	5	"IncongProc1"	2	"Incong"	"yellow"	1	744	0
113	5	"IncongProc1"	3	"Incong"	"red"	1	862	0
113	5	"IncongProc1"	4	"Incong"	"blue"	1	903	0
113	5	"IncongProc1"	5	"Incong"	"red"	1	615	0
113	5	"IncongProc1"	6	"Incong"	"blue"	1	562	0
113	5	"IncongProc1"	7	"Incong"	"blue"	1	799	0
113	5	"IncongProc1"	8	"Incong"	"red"	1	1179	0
113	5	"IncongProc1"	9	"Incong"	"yellow"	1	1024	0
113	5	"IncongProc1"	12	"Incong"	"yellow"	1	820	0
113	5	"IncongProc1"	13	"Incong"	"yellow"	1	871	0
113	5	"IncongProc1"	14	"Incong"	"blue"	1	728	0
113	5	"IncongProc1"	15	"Incong"	"green"	1	1007	0
113	5	"IncongProc1"	16	"Incong"	"yellow"	1	1242	0
113	5	"IncongProc1"	17	"Incong"	"blue"	1	1148	0
113	5	"IncongProc1"	19	"Incong"	"green"	1	727	0
113	5	"IncongProc1"	20	"Incong"	"blue"	1	709	0
113	5	"IncongProc1"	21	"Incong"	"yellow"	1	581	0
113	5	"IncongProc1"	22	"Incong"	"red"	1	730	0
113	5	"IncongProc1"	23	"Incong"	"red"	1	480	0
113	5	"IncongProc1"	24	"Incong"	"green"	1	753	0
113	5	"IncongProc1"	25	"Incong"	"green"	1	703	0
113	5	"IncongProc1"	26	"Incong"	"blue"	1	519	0
113	5	"IncongProc1"	27	"Incong"	"green"	1	854	0
113	5	"IncongProc1"	28	"Incong"	"red"	1	1424	0
113	5	"IncongProc1"	29	"Incong"	"green"	1	931	0
113	5	"IncongProc1"	30	"Incong"	"yellow"	1	738	0
113	5	"IncongProc1"	31	"Incong"	"red"	1	1264	0
113	5	"IncongProc1"	32	"Incong"	"red"	1	545	0
113	5	"IncongProc1"	33	"Incong"	"blue"	1	599	0
113	5	"IncongProc1"	34	"Incong"	"yellow"	1	603	0
113	5	"IncongProc1"	35	"Incong"	"yellow"	1	551	0
113	5	"IncongProc1"	36	"Incong"	"blue"	1	1029	0
113	5	"IncongProc1"	37	"Incong"	"blue"	1	792	0
113	5	"IncongProc1"	38	"Incong"	"green"	1	892	0
113	5	"IncongProc1"	39	"Incong"	"yellow"	1	676	0
113	5	"IncongProc1"	40	"Incong"	"blue"	1	876	0
113	5	"IncongProc1"	41	"Incong"	"green"	1	837	0
113	5	"IncongProc1"	42	"Incong"	"green"	1	488	0
113	5	"IncongProc1"	43	"Incong"	"yellow"	1	1280	0
113	5	"IncongProc1"	44	"Incong"	"red"	1	729	0
113	5	"IncongProc1"	45	"Incong"	"red"	1	1376	0
113	5	"IncongProc1"	46	"Incong"	"blue"	1	724	0
113	5	"IncongProc1"	47	"Incong"	"yellow"	1	844	0
113	6	"IncongProc2"	1	"Incong"	"yellow"	1	1134	0
113	6	"IncongProc2"	2	"Incong"	"red"	1	836	0
113	6	"IncongProc2"	3	"Incong"	"green"	1	751	0
113	6	"IncongProc2"	4	"Incong"	"blue"	1	533	0
113	6	"IncongProc2"	5	"Incong"	"blue"	1	556	0
113	6	"IncongProc2"	6	"Incong"	"yellow"	1	834	0
113	6	"IncongProc2"	7	"Incong"	"red"	1	740	0
113	6	"IncongProc2"	8	"Incong"	"blue"	1	1547	0
113	6	"IncongProc2"	9	"Incong"	"green"	1	1217	0
113	6	"IncongProc2"	10	"Incong"	"yellow"	1	509	0
113	6	"IncongProc2"	11	"Incong"	"red"	1	500	0
113	6	"IncongProc2"	12	"Incong"	"green"	1	756	0
113	6	"IncongProc2"	13	"Incong"	"blue"	1	801	0
113	6	"IncongProc2"	14	"Incong"	"yellow"	1	597	0
113	6	"IncongProc2"	16	"Incong"	"red"	1	917	0
113	6	"IncongProc2"	17	"Incong"	"red"	1	604	0
113	6	"IncongProc2"	18	"Incong"	"green"	1	944	0
113	6	"IncongProc2"	19	"Incong"	"yellow"	1	726	0
113	6	"IncongProc2"	23	"Incong"	"blue"	1	680	0
113	6	"IncongProc2"	24	"Incong"	"green"	1	625	0
113	6	"IncongProc2"	25	"Incong"	"green"	1	459	0
113	6	"IncongProc2"	26	"Incong"	"blue"	1	565	0
113	6	"IncongProc2"	27	"Incong"	"yellow"	1	570	0
113	6	"IncongProc2"	28	"Incong"	"blue"	1	727	0
113	6	"IncongProc2"	29	"Incong"	"red"	1	662	0
113	6	"IncongProc2"	31	"Incong"	"red"	1	794	0
113	6	"IncongProc2"	32	"Incong"	"blue"	1	1358	0
113	6	"IncongProc2"	33	"Incong"	"green"	1	780	0
113	6	"IncongProc2"	34	"Incong"	"yellow"	1	1121	0
113	6	"IncongProc2"	35	"Incong"	"yellow"	1	576	0
113	6	"IncongProc2"	36	"Incong"	"green"	1	773	0
113	6	"IncongProc2"	37	"Incong"	"yellow"	1	650	0
113	6	"IncongProc2"	38	"Incong"	"blue"	1	580	0
113	6	"IncongProc2"	39	"Incong"	"blue"	1	529	0
113	6	"IncongProc2"	40	"Incong"	"yellow"	1	719	0
113	6	"IncongProc2"	41	"Incong"	"red"	1	687	0
113	6	"IncongProc2"	42	"Incong"	"yellow"	1	1367	0
113	6	"IncongProc2"	43	"Incong"	"red"	1	837	0
113	6	"IncongProc2"	45	"Incong"	"green"	1	1334	0
113	6	"IncongProc2"	46	"Incong"	"blue"	1	908	0
113	7	"IncongProc3"	1	"Incong"	"blue"	1	718	0
113	7	"IncongProc3"	2	"Incong"	"green"	1	1268	0
113	7	"IncongProc3"	3	"Incong"	"blue"	1	1310	0
113	7	"IncongProc3"	4	"Incong"	"blue"	1	405	0
113	7	"IncongProc3"	5	"Incong"	"red"	1	473	0
113	7	"IncongProc3"	6	"Incong"	"green"	1	866	0
113	7	"IncongProc3"	7	"Incong"	"red"	1	1339	0
113	7	"IncongProc3"	8	"Incong"	"yellow"	1	570	0
113	7	"IncongProc3"	9	"Incong"	"yellow"	1	615	0
113	7	"IncongProc3"	10	"Incong"	"yellow"	1	1027	0
113	7	"IncongProc3"	11	"Incong"	"green"	1	637	0
113	7	"IncongProc3"	12	"Incong"	"red"	1	880	0
113	7	"IncongProc3"	13	"Incong"	"blue"	1	617	0
113	7	"IncongProc3"	15	"Incong"	"blue"	1	583	0
113	7	"IncongProc3"	16	"Incong"	"green"	1	1396	0
113	7	"IncongProc3"	18	"Incong"	"red"	1	819	0
113	7	"IncongProc3"	19	"Incong"	"red"	1	574	0
113	7	"IncongProc3"	20	"Incong"	"green"	1	1155	0
113	7	"IncongProc3"	21	"Incong"	"red"	1	849	0
113	7	"IncongProc3"	22	"Incong"	"yellow"	1	1099	0
113	7	"IncongProc3"	23	"Incong"	"green"	1	1059	0
113	7	"IncongProc3"	24	"Incong"	"yellow"	1	460	0
113	7	"IncongProc3"	25	"Incong"	"green"	1	1054	0
113	7	"IncongProc3"	26	"Incong"	"red"	1	616	0
113	7	"IncongProc3"	27	"Incong"	"yellow"	1	811	0
113	7	"IncongProc3"	28	"Incong"	"blue"	1	1086	0
113	7	"IncongProc3"	29	"Incong"	"green"	1	1119	0
113	7	"IncongProc3"	30	"Incong"	"green"	1	486	0
113	7	"IncongProc3"	31	"Incong"	"blue"	1	567	0
113	7	"IncongProc3"	32	"Incong"	"red"	1	516	0
113	7	"IncongProc3"	34	"Incong"	"red"	1	1551	0
113	7	"IncongProc3"	35	"Incong"	"yellow"	1	1349	0
113	7	"IncongProc3"	38	"Incong"	"red"	1	1180	0
113	7	"IncongProc3"	39	"Incong"	"yellow"	1	1104	0
113	7	"IncongProc3"	40	"Incong"	"yellow"	1	440	0
113	7	"IncongProc3"	41	"Incong"	"blue"	1	803	0
113	7	"IncongProc3"	42	"Incong"	"green"	1	807	0
113	7	"IncongProc3"	43	"Incong"	"yellow"	1	970	0
113	7	"IncongProc3"	44	"Incong"	"red"	1	1192	0
113	7	"IncongProc3"	45	"Incong"	"green"	1	956	0
113	7	"IncongProc3"	46	"Incong"	"blue"	1	1178	0
113	7	"IncongProc3"	47	"Incong"	"blue"	1	1446	0
113	7	"IncongProc3"	48	"Incong"	"red"	1	944	0
116	2	"CongProc1"	2	"Cong"	"yellow"	1	634	0
116	2	"CongProc1"	3	"Cong"	"blue"	1	620	0
116	2	"CongProc1"	4	"Cong"	"green"	1	360	0
116	2	"CongProc1"	5	"Cong"	"blue"	1	837	0
116	2	"CongProc1"	6	"Cong"	"yellow"	1	680	0
116	2	"CongProc1"	8	"Cong"	"red"	1	844	0
116	2	"CongProc1"	9	"Cong"	"yellow"	1	718	0
116	2	"CongProc1"	10	"Cong"	"red"	1	621	0
116	2	"CongProc1"	11	"Cong"	"blue"	1	656	0
116	2	"CongProc1"	13	"Cong"	"red"	1	674	0
116	2	"CongProc1"	14	"Cong"	"blue"	1	627	0
116	2	"CongProc1"	15	"Cong"	"green"	1	838	0
116	2	"CongProc1"	16	"Cong"	"yellow"	1	992	0
116	2	"CongProc1"	17	"Cong"	"yellow"	1	476	0
116	2	"CongProc1"	18	"Cong"	"red"	1	517	0
116	2	"CongProc1"	19	"Cong"	"blue"	1	596	0
116	2	"CongProc1"	20	"Cong"	"green"	1	752	0
116	2	"CongProc1"	21	"Cong"	"green"	1	398	0
116	2	"CongProc1"	22	"Cong"	"blue"	1	722	0
116	2	"CongProc1"	23	"Cong"	"red"	1	450	0
116	2	"CongProc1"	24	"Cong"	"yellow"	1	444	0
116	2	"CongProc1"	26	"Cong"	"red"	1	557	0
116	2	"CongProc1"	27	"Cong"	"yellow"	1	619	0
116	2	"CongProc1"	28	"Cong"	"blue"	1	550	0
116	2	"CongProc1"	29	"Cong"	"green"	1	948	0
116	2	"CongProc1"	30	"Cong"	"yellow"	1	658	0
116	2	"CongProc1"	31	"Cong"	"red"	1	531	0
116	2	"CongProc1"	32	"Cong"	"blue"	1	658	0
116	2	"CongProc1"	33	"Cong"	"blue"	1	378	0
116	2	"CongProc1"	34	"Cong"	"green"	1	672	0
116	2	"CongProc1"	35	"Cong"	"yellow"	1	473	0
116	2	"CongProc1"	36	"Cong"	"red"	1	499	0
116	2	"CongProc1"	37	"Cong"	"red"	1	531	0
116	2	"CongProc1"	38	"Cong"	"yellow"	1	553	0
116	2	"CongProc1"	39	"Cong"	"green"	1	671	0
116	2	"CongProc1"	40	"Cong"	"blue"	1	720	0
116	2	"CongProc1"	42	"Cong"	"red"	1	523	0
116	2	"CongProc1"	43	"Cong"	"yellow"	1	593	0
116	2	"CongProc1"	44	"Cong"	"blue"	1	901	0
116	2	"CongProc1"	45	"Cong"	"red"	1	597	0
116	2	"CongProc1"	46	"Cong"	"blue"	1	777	0
116	2	"CongProc1"	47	"Cong"	"green"	1	622	0
116	2	"CongProc1"	48	"Cong"	"yellow"	1	488	0
116	3	"CongProc2"	2	"Cong"	"red"	1	718	0
116	3	"CongProc2"	3	"Cong"	"green"	1	510	0
116	3	"CongProc2"	4	"Cong"	"yellow"	1	333	0
116	3	"CongProc2"	5	"Cong"	"red"	1	540	0
116	3	"CongProc2"	6	"Cong"	"yellow"	1	554	0
116	3	"CongProc2"	7	"Cong"	"blue"	1	736	0
116	3	"CongProc2"	8	"Cong"	"green"	1	607	0
116	3	"CongProc2"	9	"Cong"	"green"	1	467	0
116	3	"CongProc2"	10	"Cong"	"yellow"	1	476	0
116	3	"CongProc2"	11	"Cong"	"blue"	1	533	0
116	3	"CongProc2"	12	"Cong"	"red"	1	563	0
116	3	"CongProc2"	13	"Cong"	"green"	1	849	0
116	3	"CongProc2"	14	"Cong"	"yellow"	1	403	0
116	3	"CongProc2"	15	"Cong"	"red"	1	703	0
116	3	"CongProc2"	16	"Cong"	"blue"	1	359	0
116	3	"CongProc2"	17	"Cong"	"green"	1	444	0
116	3	"CongProc2"	18	"Cong"	"yellow"	1	326	0
116	3	"CongProc2"	19	"Cong"	"red"	1	509	0
116	3	"CongProc2"	20	"Cong"	"blue"	1	348	0
116	3	"CongProc2"	21	"Cong"	"red"	1	626	0
116	3	"CongProc2"	22	"Cong"	"yellow"	1	621	0
116	3	"CongProc2"	23	"Cong"	"green"	1	512	0
116	3	"CongProc2"	24	"Cong"	"blue"	1	871	0
116	3	"CongProc2"	25	"Cong"	"green"	1	673	0
116	3	"CongProc2"	26	"Cong"	"red"	1	658	0
116	3	"CongProc2"	27	"Cong"	"yellow"	1	547	0
116	3	"CongProc2"	28	"Cong"	"blue"	1	785	0
116	3	"CongProc2"	29	"Cong"	"green"	1	990	0
116	3	"CongProc2"	32	"Cong"	"red"	1	791	0
116	3	"CongProc2"	34	"Cong"	"yellow"	1	610	0
116	3	"CongProc2"	35	"Cong"	"red"	1	549	0
116	3	"CongProc2"	36	"Cong"	"blue"	1	523	0
116	3	"CongProc2"	37	"Cong"	"red"	1	690	0
116	3	"CongProc2"	38	"Cong"	"green"	1	499	0
116	3	"CongProc2"	39	"Cong"	"blue"	1	707	0
116	3	"CongProc2"	40	"Cong"	"yellow"	1	435	0
116	3	"CongProc2"	41	"Cong"	"red"	1	517	0
116	3	"CongProc2"	42	"Cong"	"green"	1	605	0
116	3	"CongProc2"	43	"Cong"	"yellow"	1	544	0
116	3	"CongProc2"	44	"Cong"	"blue"	1	326	0
116	3	"CongProc2"	45	"Cong"	"green"	1	589	0
116	3	"CongProc2"	46	"Cong"	"blue"	1	465	0
116	3	"CongProc2"	47	"Cong"	"yellow"	1	531	0
116	3	"CongProc2"	48	"Cong"	"red"	1	441	0
116	5	"IncongProc1"	2	"Incong"	"blue"	1	826	0
116	5	"IncongProc1"	3	"Incong"	"green"	1	621	0
116	5	"IncongProc1"	4	"Incong"	"red"	1	440	0
116	5	"IncongProc1"	5	"Incong"	"blue"	1	707	0
116	5	"IncongProc1"	6	"Incong"	"yellow"	1	731	0
116	5	"IncongProc1"	8	"Incong"	"red"	1	739	0
116	5	"IncongProc1"	9	"Incong"	"green"	1	1058	0
116	5	"IncongProc1"	10	"Incong"	"yellow"	1	603	0
116	5	"IncongProc1"	12	"Incong"	"red"	1	615	0
116	5	"IncongProc1"	14	"Incong"	"green"	1	755	0
116	5	"IncongProc1"	15	"Incong"	"blue"	1	1024	0
116	5	"IncongProc1"	16	"Incong"	"red"	1	411	0
116	5	"IncongProc1"	17	"Incong"	"yellow"	1	350	0
116	5	"IncongProc1"	18	"Incong"	"red"	1	636	0
116	5	"IncongProc1"	19	"Incong"	"red"	1	559	0
116	5	"IncongProc1"	20	"Incong"	"blue"	1	540	0
116	5	"IncongProc1"	21	"Incong"	"blue"	1	514	0
116	5	"IncongProc1"	22	"Incong"	"green"	1	546	0
116	5	"IncongProc1"	23	"Incong"	"green"	1	520	0
116	5	"IncongProc1"	24	"Incong"	"yellow"	1	535	0
116	5	"IncongProc1"	27	"Incong"	"blue"	1	534	0
116	5	"IncongProc1"	28	"Incong"	"green"	1	556	0
116	5	"IncongProc1"	29	"Incong"	"yellow"	1	458	0
116	5	"IncongProc1"	31	"Incong"	"blue"	1	1064	0
116	5	"IncongProc1"	32	"Incong"	"red"	1	482	0
116	5	"IncongProc1"	33	"Incong"	"red"	1	402	0
116	5	"IncongProc1"	35	"Incong"	"yellow"	1	987	0
116	5	"IncongProc1"	36	"Incong"	"red"	1	552	0
116	5	"IncongProc1"	38	"Incong"	"blue"	1	532	0
116	5	"IncongProc1"	39	"Incong"	"yellow"	1	523	0
116	5	"IncongProc1"	40	"Incong"	"green"	1	578	0
116	5	"IncongProc1"	41	"Incong"	"green"	1	534	0
116	5	"IncongProc1"	42	"Incong"	"green"	1	357	0
116	5	"IncongProc1"	43	"Incong"	"red"	1	443	0
116	5	"IncongProc1"	44	"Incong"	"red"	1	469	0
116	5	"IncongProc1"	45	"Incong"	"red"	1	367	0
116	5	"IncongProc1"	46	"Incong"	"blue"	1	612	0
116	5	"IncongProc1"	47	"Incong"	"yellow"	1	567	0
116	5	"IncongProc1"	48	"Incong"	"yellow"	1	477	0
116	6	"IncongProc2"	2	"Incong"	"blue"	1	737	0
116	6	"IncongProc2"	3	"Incong"	"red"	1	776	0
116	6	"IncongProc2"	4	"Incong"	"yellow"	1	589	0
116	6	"IncongProc2"	5	"Incong"	"green"	1	465	0
116	6	"IncongProc2"	6	"Incong"	"blue"	1	675	0
116	6	"IncongProc2"	7	"Incong"	"red"	1	763	0
116	6	"IncongProc2"	8	"Incong"	"yellow"	1	601	0
116	6	"IncongProc2"	9	"Incong"	"blue"	1	701	0
116	6	"IncongProc2"	10	"Incong"	"red"	1	621	0
116	6	"IncongProc2"	11	"Incong"	"green"	1	472	0
116	6	"IncongProc2"	12	"Incong"	"green"	1	489	0
116	6	"IncongProc2"	13	"Incong"	"green"	1	425	0
116	6	"IncongProc2"	14	"Incong"	"yellow"	1	420	0
116	6	"IncongProc2"	15	"Incong"	"red"	1	551	0
116	6	"IncongProc2"	16	"Incong"	"yellow"	1	565	0
116	6	"IncongProc2"	17	"Incong"	"yellow"	1	739	0
116	6	"IncongProc2"	19	"Incong"	"blue"	1	646	0
116	6	"IncongProc2"	20	"Incong"	"red"	1	816	0
116	6	"IncongProc2"	22	"Incong"	"blue"	1	546	0
116	6	"IncongProc2"	23	"Incong"	"green"	1	784	0
116	6	"IncongProc2"	24	"Incong"	"red"	1	541	0
116	6	"IncongProc2"	25	"Incong"	"yellow"	1	515	0
116	6	"IncongProc2"	27	"Incong"	"red"	1	377	0
116	6	"IncongProc2"	28	"Incong"	"blue"	1	526	0
116	6	"IncongProc2"	29	"Incong"	"yellow"	1	757	0
116	6	"IncongProc2"	30	"Incong"	"green"	1	490	0
116	6	"IncongProc2"	32	"Incong"	"blue"	1	420	0
116	6	"IncongProc2"	33	"Incong"	"yellow"	1	615	0
116	6	"IncongProc2"	34	"Incong"	"red"	1	571	0
116	6	"IncongProc2"	35	"Incong"	"green"	1	368	0
116	6	"IncongProc2"	36	"Incong"	"green"	1	485	0
116	6	"IncongProc2"	37	"Incong"	"green"	1	438	0
116	6	"IncongProc2"	38	"Incong"	"blue"	1	505	0
116	6	"IncongProc2"	39	"Incong"	"blue"	1	393	0
116	6	"IncongProc2"	40	"Incong"	"red"	1	437	0
116	6	"IncongProc2"	41	"Incong"	"green"	1	920	0
116	6	"IncongProc2"	42	"Incong"	"green"	1	775	0
116	6	"IncongProc2"	43	"Incong"	"yellow"	1	788	0
116	6	"IncongProc2"	44	"Incong"	"yellow"	1	536	0
116	6	"IncongProc2"	45	"Incong"	"red"	1	495	0
116	6	"IncongProc2"	46	"Incong"	"blue"	1	599	0
116	6	"IncongProc2"	47	"Incong"	"red"	1	971	0
116	6	"IncongProc2"	48	"Incong"	"yellow"	1	1112	0
116	7	"IncongProc3"	2	"Incong"	"green"	1	662	0
116	7	"IncongProc3"	3	"Incong"	"yellow"	1	560	0
116	7	"IncongProc3"	4	"Incong"	"red"	1	605	0
116	7	"IncongProc3"	5	"Incong"	"blue"	1	920	0
116	7	"IncongProc3"	7	"Incong"	"blue"	1	974	0
116	7	"IncongProc3"	8	"Incong"	"yellow"	1	564	0
116	7	"IncongProc3"	9	"Incong"	"red"	1	977	0
116	7	"IncongProc3"	11	"Incong"	"red"	1	921	0
116	7	"IncongProc3"	12	"Incong"	"green"	1	648	0
116	7	"IncongProc3"	13	"Incong"	"red"	1	602	0
116	7	"IncongProc3"	14	"Incong"	"red"	1	502	0
116	7	"IncongProc3"	18	"Incong"	"green"	1	660	0
116	7	"IncongProc3"	19	"Incong"	"red"	1	558	0
116	7	"IncongProc3"	20	"Incong"	"yellow"	1	651	0
116	7	"IncongProc3"	21	"Incong"	"blue"	1	693	0
116	7	"IncongProc3"	22	"Incong"	"yellow"	1	1077	0
116	7	"IncongProc3"	23	"Incong"	"blue"	1	686	0
116	7	"IncongProc3"	24	"Incong"	"yellow"	1	439	0
116	7	"IncongProc3"	25	"Incong"	"green"	1	945	0
116	7	"IncongProc3"	26	"Incong"	"yellow"	1	967	0
116	7	"IncongProc3"	27	"Incong"	"red"	1	549	0
116	7	"IncongProc3"	28	"Incong"	"yellow"	1	851	0
116	7	"IncongProc3"	29	"Incong"	"red"	1	589	0
116	7	"IncongProc3"	30	"Incong"	"blue"	1	745	0
116	7	"IncongProc3"	31	"Incong"	"green"	1	423	0
116	7	"IncongProc3"	32	"Incong"	"red"	1	675	0
116	7	"IncongProc3"	33	"Incong"	"green"	1	731	0
116	7	"IncongProc3"	34	"Incong"	"blue"	1	914	0
116	7	"IncongProc3"	35	"Incong"	"yellow"	1	841	0
116	7	"IncongProc3"	37	"Incong"	"red"	1	745	0
116	7	"IncongProc3"	38	"Incong"	"green"	1	1038	0
116	7	"IncongProc3"	39	"Incong"	"red"	1	904	0
116	7	"IncongProc3"	40	"Incong"	"green"	1	856	0
116	7	"IncongProc3"	41	"Incong"	"blue"	1	954	0
116	7	"IncongProc3"	42	"Incong"	"green"	1	752	0
116	7	"IncongProc3"	43	"Incong"	"yellow"	1	574	0
116	7	"IncongProc3"	44	"Incong"	"yellow"	1	515	0
116	7	"IncongProc3"	45	"Incong"	"blue"	1	1106	0
116	7	"IncongProc3"	46	"Incong"	"red"	1	578	0
116	7	"IncongProc3"	47	"Incong"	"yellow"	1	519	0
116	7	"IncongProc3"	48	"Incong"	"blue"	1	758	0
124	2	"CongProc1"	2	"Cong"	"blue"	1	799	0
124	2	"CongProc1"	3	"Cong"	"red"	1	571	0
124	2	"CongProc1"	4	"Cong"	"green"	1	608	0
124	2	"CongProc1"	5	"Cong"	"blue"	1	652	0
124	2	"CongProc1"	6	"Cong"	"yellow"	1	598	0
124	2	"CongProc1"	7	"Cong"	"red"	1	490	0
124	2	"CongProc1"	9	"Cong"	"yellow"	1	527	0
124	2	"CongProc1"	10	"Cong"	"red"	1	557	0
124	2	"CongProc1"	11	"Cong"	"blue"	1	515	0
124	2	"CongProc1"	12	"Cong"	"green"	1	610	0
124	2	"CongProc1"	13	"Cong"	"blue"	1	733	0
124	2	"CongProc1"	14	"Cong"	"green"	1	764	0
124	2	"CongProc1"	15	"Cong"	"red"	1	481	0
124	2	"CongProc1"	16	"Cong"	"yellow"	1	618	0
124	2	"CongProc1"	17	"Cong"	"red"	1	853	0
124	2	"CongProc1"	18	"Cong"	"yellow"	1	559	0
124	2	"CongProc1"	19	"Cong"	"blue"	1	509	0
124	2	"CongProc1"	20	"Cong"	"green"	1	556	0
124	2	"CongProc1"	21	"Cong"	"green"	1	442	0
124	2	"CongProc1"	22	"Cong"	"yellow"	1	572	0
124	2	"CongProc1"	25	"Cong"	"blue"	1	462	0
124	2	"CongProc1"	26	"Cong"	"green"	1	607	0
124	2	"CongProc1"	27	"Cong"	"yellow"	1	523	0
124	2	"CongProc1"	28	"Cong"	"red"	1	482	0
124	2	"CongProc1"	29	"Cong"	"red"	1	379	0
124	2	"CongProc1"	30	"Cong"	"yellow"	1	591	0
124	2	"CongProc1"	31	"Cong"	"green"	1	620	0
124	2	"CongProc1"	32	"Cong"	"blue"	1	463	0
124	2	"CongProc1"	33	"Cong"	"green"	1	769	0
124	2	"CongProc1"	35	"Cong"	"yellow"	1	636	0
124	2	"CongProc1"	36	"Cong"	"blue"	1	662	0
124	2	"CongProc1"	37	"Cong"	"green"	1	744	0
124	2	"CongProc1"	38	"Cong"	"red"	1	646	0
124	2	"CongProc1"	39	"Cong"	"yellow"	1	624	0
124	2	"CongProc1"	41	"Cong"	"red"	1	745	0
124	2	"CongProc1"	42	"Cong"	"yellow"	1	647	0
124	2	"CongProc1"	43	"Cong"	"blue"	1	633	0
124	2	"CongProc1"	44	"Cong"	"green"	1	684	0
124	2	"CongProc1"	45	"Cong"	"yellow"	1	644	0
124	2	"CongProc1"	46	"Cong"	"green"	1	686	0
124	2	"CongProc1"	47	"Cong"	"red"	1	607	0
124	2	"CongProc1"	48	"Cong"	"blue"	1	595	0
124	3	"CongProc2"	1	"Cong"	"yellow"	1	547	0
124	3	"CongProc2"	2	"Cong"	"blue"	1	536	0
124	3	"CongProc2"	3	"Cong"	"red"	1	528	0
124	3	"CongProc2"	4	"Cong"	"green"	1	525	0
124	3	"CongProc2"	5	"Cong"	"red"	1	581	0
124	3	"CongProc2"	6	"Cong"	"blue"	1	642	0
124	3	"CongProc2"	7	"Cong"	"green"	1	620	0
124	3	"CongProc2"	8	"Cong"	"yellow"	1	486	0
124	3	"CongProc2"	9	"Cong"	"yellow"	1	464	0
124	3	"CongProc2"	10	"Cong"	"red"	1	704	0
124	3	"CongProc2"	11	"Cong"	"green"	1	728	0
124	3	"CongProc2"	12	"Cong"	"blue"	1	519	0
124	3	"CongProc2"	13	"Cong"	"red"	1	510	0
124	3	"CongProc2"	14	"Cong"	"yellow"	1	821	0
124	3	"CongProc2"	15	"Cong"	"blue"	1	641	0
124	3	"CongProc2"	16	"Cong"	"green"	1	563	0
124	3	"CongProc2"	17	"Cong"	"green"	1	424	0
124	3	"CongProc2"	18	"Cong"	"yellow"	1	635	0
124	3	"CongProc2"	19	"Cong"	"red"	1	549	0
124	3	"CongProc2"	20	"Cong"	"blue"	1	715	0
124	3	"CongProc2"	21	"Cong"	"blue"	1	443	0
124	3	"CongProc2"	23	"Cong"	"yellow"	1	552	0
124	3	"CongProc2"	24	"Cong"	"red"	1	486	0
124	3	"CongProc2"	25	"Cong"	"green"	1	591	0
124	3	"CongProc2"	26	"Cong"	"blue"	1	507	0
124	3	"CongProc2"	27	"Cong"	"yellow"	1	562	0
124	3	"CongProc2"	28	"Cong"	"red"	1	624	0
124	3	"CongProc2"	31	"Cong"	"red"	1	494	0
124	3	"CongProc2"	32	"Cong"	"blue"	1	606	0
124	3	"CongProc2"	33	"Cong"	"red"	1	554	0
124	3	"CongProc2"	34	"Cong"	"yellow"	1	568	0
124	3	"CongProc2"	35	"Cong"	"green"	1	469	0
124	3	"CongProc2"	36	"Cong"	"blue"	1	774	0
124	3	"CongProc2"	37	"Cong"	"red"	1	819	0
124	3	"CongProc2"	38	"Cong"	"blue"	1	606	0
124	3	"CongProc2"	40	"Cong"	"green"	1	593	0
124	3	"CongProc2"	41	"Cong"	"green"	1	453	0
124	3	"CongProc2"	42	"Cong"	"red"	1	639	0
124	3	"CongProc2"	44	"Cong"	"blue"	1	564	0
124	3	"CongProc2"	45	"Cong"	"yellow"	1	561	0
124	3	"CongProc2"	46	"Cong"	"blue"	1	558	0
124	3	"CongProc2"	47	"Cong"	"green"	1	556	0
124	3	"CongProc2"	48	"Cong"	"red"	1	418	0
124	5	"IncongProc1"	1	"Incong"	"red"	1	838	0
124	5	"IncongProc1"	2	"Incong"	"green"	1	905	0
124	5	"IncongProc1"	3	"Incong"	"blue"	1	721	0
124	5	"IncongProc1"	4	"Incong"	"blue"	1	952	0
124	5	"IncongProc1"	5	"Incong"	"yellow"	1	1502	0
124	5	"IncongProc1"	7	"Incong"	"red"	1	1249	0
124	5	"IncongProc1"	8	"Incong"	"yellow"	1	844	0
124	5	"IncongProc1"	9	"Incong"	"blue"	1	1229	0
124	5	"IncongProc1"	10	"Incong"	"green"	1	1064	0
124	5	"IncongProc1"	11	"Incong"	"yellow"	1	1154	0
124	5	"IncongProc1"	12	"Incong"	"green"	1	912	0
124	5	"IncongProc1"	13	"Incong"	"yellow"	1	647	0
124	5	"IncongProc1"	15	"Incong"	"red"	1	1539	0
124	5	"IncongProc1"	17	"Incong"	"blue"	1	1130	0
124	5	"IncongProc1"	18	"Incong"	"blue"	1	768	0
124	5	"IncongProc1"	19	"Incong"	"green"	1	958	0
124	5	"IncongProc1"	20	"Incong"	"green"	1	644	0
124	5	"IncongProc1"	21	"Incong"	"green"	1	501	0
124	5	"IncongProc1"	22	"Incong"	"yellow"	1	830	0
124	5	"IncongProc1"	23	"Incong"	"red"	1	648	0
124	5	"IncongProc1"	25	"Incong"	"yellow"	1	1401	0
124	5	"IncongProc1"	26	"Incong"	"red"	1	661	0
124	5	"IncongProc1"	27	"Incong"	"green"	1	903	0
124	5	"IncongProc1"	28	"Incong"	"blue"	1	678	0
124	5	"IncongProc1"	29	"Incong"	"blue"	1	936	0
124	5	"IncongProc1"	30	"Incong"	"yellow"	1	1109	0
124	5	"IncongProc1"	31	"Incong"	"red"	1	789	0
124	5	"IncongProc1"	32	"Incong"	"red"	1	1329	0
124	5	"IncongProc1"	33	"Incong"	"green"	1	1568	0
124	5	"IncongProc1"	34	"Incong"	"blue"	1	653	0
124	5	"IncongProc1"	38	"Incong"	"green"	1	1481	0
124	5	"IncongProc1"	39	"Incong"	"yellow"	1	1514	0
124	5	"IncongProc1"	40	"Incong"	"red"	1	762	0
124	5	"IncongProc1"	41	"Incong"	"yellow"	1	991	0
124	5	"IncongProc1"	42	"Incong"	"red"	1	708	0
124	5	"IncongProc1"	43	"Incong"	"red"	1	731	0
124	5	"IncongProc1"	44	"Incong"	"green"	1	1466	0
124	5	"IncongProc1"	45	"Incong"	"yellow"	1	1019	0
124	5	"IncongProc1"	46	"Incong"	"blue"	1	910	0
124	5	"IncongProc1"	48	"Incong"	"green"	1	747	0
124	6	"IncongProc2"	1	"Incong"	"red"	1	1324	0
124	6	"IncongProc2"	4	"Incong"	"green"	1	939	0
124	6	"IncongProc2"	5	"Incong"	"red"	1	722	0
124	6	"IncongProc2"	6	"Incong"	"red"	1	1185	0
124	6	"IncongProc2"	7	"Incong"	"blue"	1	862	0
124	6	"IncongProc2"	8	"Incong"	"green"	1	743	0
124	6	"IncongProc2"	9	"Incong"	"yellow"	1	1269	0
124	6	"IncongProc2"	10	"Incong"	"yellow"	1	702	0
124	6	"IncongProc2"	11	"Incong"	"blue"	1	958	0
124	6	"IncongProc2"	12	"Incong"	"yellow"	1	1148	0
124	6	"IncongProc2"	13	"Incong"	"yellow"	1	546	0
124	6	"IncongProc2"	14	"Incong"	"yellow"	1	512	0
124	6	"IncongProc2"	15	"Incong"	"blue"	1	615	0
124	6	"IncongProc2"	16	"Incong"	"green"	1	963	0
124	6	"IncongProc2"	17	"Incong"	"red"	1	616	0
124	6	"IncongProc2"	18	"Incong"	"green"	1	771	0
124	6	"IncongProc2"	19	"Incong"	"red"	1	1145	0
124	6	"IncongProc2"	21	"Incong"	"blue"	1	593	0
124	6	"IncongProc2"	22	"Incong"	"yellow"	1	1157	0
124	6	"IncongProc2"	23	"Incong"	"green"	1	1211	0
124	6	"IncongProc2"	24	"Incong"	"red"	1	646	0
124	6	"IncongProc2"	25	"Incong"	"yellow"	1	1144	0
124	6	"IncongProc2"	26	"Incong"	"blue"	1	1198	0
124	6	"IncongProc2"	27	"Incong"	"red"	1	602	0
124	6	"IncongProc2"	28	"Incong"	"yellow"	1	838	0
124	6	"IncongProc2"	29	"Incong"	"red"	1	1073	0
124	6	"IncongProc2"	31	"Incong"	"blue"	1	1579	0
124	6	"IncongProc2"	32	"Incong"	"green"	1	935	0
124	6	"IncongProc2"	33	"Incong"	"green"	1	926	0
124	6	"IncongProc2"	34	"Incong"	"yellow"	1	757	0
124	6	"IncongProc2"	35	"Incong"	"blue"	1	1650	0
124	6	"IncongProc2"	36	"Incong"	"green"	1	868	0
124	6	"IncongProc2"	37	"Incong"	"green"	1	597	0
124	6	"IncongProc2"	38	"Incong"	"yellow"	1	1281	0
124	6	"IncongProc2"	39	"Incong"	"red"	1	562	0
124	6	"IncongProc2"	40	"Incong"	"red"	1	527	0
124	6	"IncongProc2"	41	"Incong"	"green"	1	958	0
124	6	"IncongProc2"	42	"Incong"	"blue"	1	1092	0
124	6	"IncongProc2"	43	"Incong"	"yellow"	1	1652	0
124	6	"IncongProc2"	44	"Incong"	"yellow"	1	486	0
124	6	"IncongProc2"	45	"Incong"	"blue"	1	1319	0
124	6	"IncongProc2"	46	"Incong"	"green"	1	1214	0
124	6	"IncongProc2"	47	"Incong"	"blue"	1	1450	0
124	6	"IncongProc2"	48	"Incong"	"red"	1	524	0
124	7	"IncongProc3"	1	"Incong"	"yellow"	1	1048	0
124	7	"IncongProc3"	2	"Incong"	"blue"	1	1410	0
124	7	"IncongProc3"	3	"Incong"	"green"	1	541	0
124	7	"IncongProc3"	4	"Incong"	"yellow"	1	867	0
124	7	"IncongProc3"	5	"Incong"	"red"	1	396	0
124	7	"IncongProc3"	6	"Incong"	"blue"	1	1576	0
124	7	"IncongProc3"	7	"Incong"	"yellow"	1	733	0
124	7	"IncongProc3"	8	"Incong"	"green"	1	764	0
124	7	"IncongProc3"	10	"Incong"	"blue"	1	871	0
124	7	"IncongProc3"	12	"Incong"	"red"	1	767	0
124	7	"IncongProc3"	13	"Incong"	"yellow"	1	692	0
124	7	"IncongProc3"	14	"Incong"	"yellow"	1	612	0
124	7	"IncongProc3"	15	"Incong"	"green"	1	1048	0
124	7	"IncongProc3"	16	"Incong"	"red"	1	842	0
124	7	"IncongProc3"	17	"Incong"	"blue"	1	1163	0
124	7	"IncongProc3"	18	"Incong"	"red"	1	1521	0
124	7	"IncongProc3"	19	"Incong"	"green"	1	736	0
124	7	"IncongProc3"	20	"Incong"	"red"	1	839	0
124	7	"IncongProc3"	21	"Incong"	"blue"	1	793	0
124	7	"IncongProc3"	22	"Incong"	"blue"	1	469	0
124	7	"IncongProc3"	24	"Incong"	"green"	1	627	0
124	7	"IncongProc3"	25	"Incong"	"blue"	1	1398	0
124	7	"IncongProc3"	26	"Incong"	"yellow"	1	706	0
124	7	"IncongProc3"	27	"Incong"	"red"	1	578	0
124	7	"IncongProc3"	29	"Incong"	"red"	1	634	0
124	7	"IncongProc3"	30	"Incong"	"red"	1	540	0
124	7	"IncongProc3"	31	"Incong"	"green"	1	1346	0
124	7	"IncongProc3"	33	"Incong"	"green"	1	668	0
124	7	"IncongProc3"	35	"Incong"	"yellow"	1	1617	0
124	7	"IncongProc3"	36	"Incong"	"yellow"	1	564	0
124	7	"IncongProc3"	37	"Incong"	"yellow"	1	426	0
124	7	"IncongProc3"	38	"Incong"	"red"	1	484	0
124	7	"IncongProc3"	39	"Incong"	"blue"	1	1677	0
124	7	"IncongProc3"	40	"Incong"	"yellow"	1	806	0
124	7	"IncongProc3"	41	"Incong"	"green"	1	1106	0
124	7	"IncongProc3"	42	"Incong"	"red"	1	946	0
124	7	"IncongProc3"	43	"Incong"	"red"	1	592	0
124	7	"IncongProc3"	44	"Incong"	"blue"	1	644	0
124	7	"IncongProc3"	45	"Incong"	"blue"	1	766	0
124	7	"IncongProc3"	46	"Incong"	"yellow"	1	619	0
124	7	"IncongProc3"	47	"Incong"	"green"	1	934	0
124	7	"IncongProc3"	48	"Incong"	"green"	1	589	0
133	2	"CongProc1"	2	"Cong"	"green"	1	676	0
133	2	"CongProc1"	3	"Cong"	"yellow"	1	564	0
133	2	"CongProc1"	4	"Cong"	"blue"	1	538	0
133	2	"CongProc1"	7	"Cong"	"yellow"	1	545	0
133	2	"CongProc1"	8	"Cong"	"red"	1	519	0
133	2	"CongProc1"	9	"Cong"	"red"	1	495	0
133	2	"CongProc1"	10	"Cong"	"green"	1	599	0
133	2	"CongProc1"	11	"Cong"	"blue"	1	819	0
133	2	"CongProc1"	12	"Cong"	"yellow"	1	590	0
133	2	"CongProc1"	13	"Cong"	"blue"	1	754	0
133	2	"CongProc1"	14	"Cong"	"red"	1	616	0
133	2	"CongProc1"	15	"Cong"	"green"	1	835	0
133	2	"CongProc1"	16	"Cong"	"yellow"	1	598	0
133	2	"CongProc1"	17	"Cong"	"yellow"	1	538	0
133	2	"CongProc1"	18	"Cong"	"red"	1	609	0
133	2	"CongProc1"	20	"Cong"	"blue"	1	495	0
133	2	"CongProc1"	21	"Cong"	"green"	1	639	0
133	2	"CongProc1"	22	"Cong"	"red"	1	833	0
133	2	"CongProc1"	24	"Cong"	"yellow"	1	581	0
133	2	"CongProc1"	25	"Cong"	"green"	1	689	0
133	2	"CongProc1"	26	"Cong"	"yellow"	1	634	0
133	2	"CongProc1"	27	"Cong"	"red"	1	917	0
133	2	"CongProc1"	28	"Cong"	"blue"	1	836	0
133	2	"CongProc1"	29	"Cong"	"yellow"	1	695	0
133	2	"CongProc1"	31	"Cong"	"red"	1	579	0
133	2	"CongProc1"	32	"Cong"	"green"	1	792	0
133	2	"CongProc1"	33	"Cong"	"green"	1	516	0
133	2	"CongProc1"	34	"Cong"	"blue"	1	523	0
133	2	"CongProc1"	35	"Cong"	"yellow"	1	714	0
133	2	"CongProc1"	37	"Cong"	"red"	1	588	0
133	2	"CongProc1"	38	"Cong"	"blue"	1	585	0
133	2	"CongProc1"	39	"Cong"	"green"	1	525	0
133	2	"CongProc1"	40	"Cong"	"yellow"	1	612	0
133	2	"CongProc1"	41	"Cong"	"blue"	1	855	0
133	2	"CongProc1"	42	"Cong"	"yellow"	1	681	0
133	2	"CongProc1"	43	"Cong"	"green"	1	489	0
133	2	"CongProc1"	44	"Cong"	"red"	1	529	0
133	2	"CongProc1"	46	"Cong"	"red"	1	514	0
133	2	"CongProc1"	47	"Cong"	"yellow"	1	658	0
133	2	"CongProc1"	48	"Cong"	"blue"	1	563	0
133	3	"CongProc2"	1	"Cong"	"red"	1	632	0
133	3	"CongProc2"	2	"Cong"	"green"	1	691	0
133	3	"CongProc2"	3	"Cong"	"yellow"	1	636	0
133	3	"CongProc2"	4	"Cong"	"blue"	1	430	0
133	3	"CongProc2"	5	"Cong"	"blue"	1	505	0
133	3	"CongProc2"	6	"Cong"	"yellow"	1	553	0
133	3	"CongProc2"	8	"Cong"	"red"	1	491	0
133	3	"CongProc2"	9	"Cong"	"red"	1	491	0
133	3	"CongProc2"	10	"Cong"	"yellow"	1	580	0
133	3	"CongProc2"	11	"Cong"	"blue"	1	456	0
133	3	"CongProc2"	12	"Cong"	"green"	1	530	0
133	3	"CongProc2"	13	"Cong"	"red"	1	529	0
133	3	"CongProc2"	14	"Cong"	"green"	1	760	0
133	3	"CongProc2"	15	"Cong"	"yellow"	1	517	0
133	3	"CongProc2"	16	"Cong"	"blue"	1	436	0
133	3	"CongProc2"	17	"Cong"	"red"	1	751	0
133	3	"CongProc2"	18	"Cong"	"green"	1	557	0
133	3	"CongProc2"	19	"Cong"	"yellow"	1	563	0
133	3	"CongProc2"	20	"Cong"	"blue"	1	464	0
133	3	"CongProc2"	21	"Cong"	"red"	1	538	0
133	3	"CongProc2"	24	"Cong"	"green"	1	529	0
133	3	"CongProc2"	25	"Cong"	"red"	1	896	0
133	3	"CongProc2"	26	"Cong"	"blue"	1	712	0
133	3	"CongProc2"	27	"Cong"	"green"	1	727	0
133	3	"CongProc2"	28	"Cong"	"yellow"	1	486	0
133	3	"CongProc2"	29	"Cong"	"blue"	1	749	0
133	3	"CongProc2"	30	"Cong"	"red"	1	596	0
133	3	"CongProc2"	31	"Cong"	"green"	1	871	0
133	3	"CongProc2"	32	"Cong"	"yellow"	1	521	0
133	3	"CongProc2"	33	"Cong"	"green"	1	800	0
133	3	"CongProc2"	34	"Cong"	"red"	1	564	0
133	3	"CongProc2"	35	"Cong"	"yellow"	1	538	0
133	3	"CongProc2"	36	"Cong"	"blue"	1	648	0
133	3	"CongProc2"	37	"Cong"	"blue"	1	522	0
133	3	"CongProc2"	38	"Cong"	"yellow"	1	914	0
133	3	"CongProc2"	39	"Cong"	"green"	1	681	0
133	3	"CongProc2"	40	"Cong"	"red"	1	650	0
133	3	"CongProc2"	41	"Cong"	"blue"	1	884	0
133	3	"CongProc2"	42	"Cong"	"green"	1	732	0
133	3	"CongProc2"	43	"Cong"	"red"	1	731	0
133	3	"CongProc2"	44	"Cong"	"yellow"	1	546	0
133	3	"CongProc2"	45	"Cong"	"red"	1	728	0
133	3	"CongProc2"	47	"Cong"	"blue"	1	544	0
133	3	"CongProc2"	48	"Cong"	"yellow"	1	606	0
133	5	"IncongProc1"	1	"Incong"	"blue"	1	987	0
133	5	"IncongProc1"	2	"Incong"	"blue"	1	663	0
133	5	"IncongProc1"	3	"Incong"	"green"	1	817	0
133	5	"IncongProc1"	4	"Incong"	"yellow"	1	948	0
133	5	"IncongProc1"	5	"Incong"	"green"	1	1098	0
133	5	"IncongProc1"	6	"Incong"	"red"	1	898	0
133	5	"IncongProc1"	7	"Incong"	"red"	1	538	0
133	5	"IncongProc1"	8	"Incong"	"green"	1	1609	0
133	5	"IncongProc1"	9	"Incong"	"red"	1	1636	0
133	5	"IncongProc1"	10	"Incong"	"yellow"	1	1647	0
133	5	"IncongProc1"	11	"Incong"	"blue"	1	785	0
133	5	"IncongProc1"	12	"Incong"	"yellow"	1	861	0
133	5	"IncongProc1"	13	"Incong"	"red"	1	1623	0
133	5	"IncongProc1"	14	"Incong"	"blue"	1	1785	0
133	5	"IncongProc1"	15	"Incong"	"green"	1	902	0
133	5	"IncongProc1"	16	"Incong"	"green"	1	1582	0
133	5	"IncongProc1"	17	"Incong"	"yellow"	1	1235	0
133	5	"IncongProc1"	18	"Incong"	"yellow"	1	742	0
133	5	"IncongProc1"	19	"Incong"	"blue"	1	860	0
133	5	"IncongProc1"	20	"Incong"	"green"	1	981	0
133	5	"IncongProc1"	21	"Incong"	"blue"	1	1282	0
133	5	"IncongProc1"	22	"Incong"	"yellow"	1	1170	0
133	5	"IncongProc1"	23	"Incong"	"red"	1	1056	0
133	5	"IncongProc1"	24	"Incong"	"red"	1	698	0
133	5	"IncongProc1"	25	"Incong"	"green"	1	1522	0
133	5	"IncongProc1"	26	"Incong"	"yellow"	1	1337	0
133	5	"IncongProc1"	27	"Incong"	"red"	1	2008	0
133	5	"IncongProc1"	28	"Incong"	"blue"	1	1347	0
133	5	"IncongProc1"	29	"Incong"	"yellow"	1	1913	0
133	5	"IncongProc1"	30	"Incong"	"green"	1	1120	0
133	5	"IncongProc1"	31	"Incong"	"blue"	1	1096	0
133	5	"IncongProc1"	32	"Incong"	"yellow"	1	992	0
133	5	"IncongProc1"	33	"Incong"	"green"	1	996	0
133	5	"IncongProc1"	34	"Incong"	"red"	1	696	0
133	5	"IncongProc1"	35	"Incong"	"blue"	1	1416	0
133	5	"IncongProc1"	36	"Incong"	"red"	1	1099	0
133	5	"IncongProc1"	37	"Incong"	"red"	1	595	0
133	5	"IncongProc1"	39	"Incong"	"green"	1	1166	0
133	5	"IncongProc1"	40	"Incong"	"green"	1	900	0
133	5	"IncongProc1"	41	"Incong"	"red"	1	1235	0
133	5	"IncongProc1"	42	"Incong"	"red"	1	549	0
133	5	"IncongProc1"	43	"Incong"	"yellow"	1	684	0
133	5	"IncongProc1"	44	"Incong"	"yellow"	1	1844	0
133	5	"IncongProc1"	45	"Incong"	"green"	1	1342	0
133	5	"IncongProc1"	46	"Incong"	"blue"	1	1004	0
133	5	"IncongProc1"	47	"Incong"	"blue"	1	528	0
133	5	"IncongProc1"	48	"Incong"	"blue"	1	439	0
133	6	"IncongProc2"	1	"Incong"	"red"	1	1083	0
133	6	"IncongProc2"	3	"Incong"	"green"	1	1801	0
133	6	"IncongProc2"	4	"Incong"	"blue"	1	1045	0
133	6	"IncongProc2"	5	"Incong"	"blue"	1	447	0
133	6	"IncongProc2"	6	"Incong"	"yellow"	1	825	0
133	6	"IncongProc2"	7	"Incong"	"green"	1	1332	0
133	6	"IncongProc2"	8	"Incong"	"green"	1	418	0
133	6	"IncongProc2"	9	"Incong"	"red"	1	678	0
133	6	"IncongProc2"	10	"Incong"	"yellow"	1	1110	0
133	6	"IncongProc2"	11	"Incong"	"yellow"	1	526	0
133	6	"IncongProc2"	12	"Incong"	"red"	1	1428	0
133	6	"IncongProc2"	13	"Incong"	"red"	1	487	0
133	6	"IncongProc2"	14	"Incong"	"green"	1	1968	0
133	6	"IncongProc2"	16	"Incong"	"blue"	1	1517	0
133	6	"IncongProc2"	17	"Incong"	"blue"	1	796	0
133	6	"IncongProc2"	18	"Incong"	"red"	1	648	0
133	6	"IncongProc2"	19	"Incong"	"red"	1	594	0
133	6	"IncongProc2"	20	"Incong"	"yellow"	1	894	0
133	6	"IncongProc2"	21	"Incong"	"green"	1	902	0
133	6	"IncongProc2"	22	"Incong"	"yellow"	1	1038	0
133	6	"IncongProc2"	23	"Incong"	"blue"	1	881	0
133	6	"IncongProc2"	24	"Incong"	"green"	1	826	0
133	6	"IncongProc2"	25	"Incong"	"blue"	1	909	0
133	6	"IncongProc2"	28	"Incong"	"red"	1	2005	0
133	6	"IncongProc2"	29	"Incong"	"blue"	1	1177	0
133	6	"IncongProc2"	30	"Incong"	"red"	1	1246	0
133	6	"IncongProc2"	31	"Incong"	"green"	1	744	0
133	6	"IncongProc2"	32	"Incong"	"yellow"	1	862	0
133	6	"IncongProc2"	33	"Incong"	"yellow"	1	559	0
133	6	"IncongProc2"	34	"Incong"	"blue"	1	1285	0
133	6	"IncongProc2"	35	"Incong"	"red"	1	1085	0
133	6	"IncongProc2"	36	"Incong"	"green"	1	1118	0
133	6	"IncongProc2"	37	"Incong"	"yellow"	1	1197	0
133	6	"IncongProc2"	38	"Incong"	"red"	1	1745	0
133	6	"IncongProc2"	39	"Incong"	"green"	1	919	0
133	6	"IncongProc2"	40	"Incong"	"blue"	1	639	0
133	6	"IncongProc2"	41	"Incong"	"green"	1	905	0
133	6	"IncongProc2"	42	"Incong"	"red"	1	1185	0
133	6	"IncongProc2"	43	"Incong"	"yellow"	1	838	0
133	6	"IncongProc2"	46	"Incong"	"blue"	1	1327	0
133	7	"IncongProc3"	1	"Incong"	"blue"	1	1078	0
133	7	"IncongProc3"	2	"Incong"	"red"	1	838	0
133	7	"IncongProc3"	3	"Incong"	"yellow"	1	1168	0
133	7	"IncongProc3"	4	"Incong"	"yellow"	1	526	0
133	7	"IncongProc3"	5	"Incong"	"blue"	1	1260	0
133	7	"IncongProc3"	6	"Incong"	"yellow"	1	1430	0
133	7	"IncongProc3"	7	"Incong"	"green"	1	1088	0
133	7	"IncongProc3"	8	"Incong"	"green"	1	1105	0
133	7	"IncongProc3"	9	"Incong"	"red"	1	1097	0
133	7	"IncongProc3"	10	"Incong"	"green"	1	1145	0
133	7	"IncongProc3"	11	"Incong"	"red"	1	1551	0
133	7	"IncongProc3"	12	"Incong"	"blue"	1	917	0
133	7	"IncongProc3"	13	"Incong"	"yellow"	1	1316	0
133	7	"IncongProc3"	14	"Incong"	"red"	1	972	0
133	7	"IncongProc3"	16	"Incong"	"yellow"	1	1033	0
133	7	"IncongProc3"	17	"Incong"	"green"	1	532	0
133	7	"IncongProc3"	18	"Incong"	"red"	1	922	0
133	7	"IncongProc3"	19	"Incong"	"yellow"	1	1937	0
133	7	"IncongProc3"	20	"Incong"	"red"	1	1056	0
133	7	"IncongProc3"	21	"Incong"	"blue"	1	786	0
133	7	"IncongProc3"	22	"Incong"	"blue"	1	527	0
133	7	"IncongProc3"	23	"Incong"	"green"	1	1158	0
133	7	"IncongProc3"	24	"Incong"	"blue"	1	707	0
133	7	"IncongProc3"	25	"Incong"	"red"	1	1066	0
133	7	"IncongProc3"	26	"Incong"	"yellow"	1	1132	0
133	7	"IncongProc3"	28	"Incong"	"blue"	1	1650	0
133	7	"IncongProc3"	29	"Incong"	"blue"	1	644	0
133	7	"IncongProc3"	30	"Incong"	"blue"	1	502	0
133	7	"IncongProc3"	31	"Incong"	"red"	1	1366	0
133	7	"IncongProc3"	32	"Incong"	"green"	1	1100	0
133	7	"IncongProc3"	33	"Incong"	"yellow"	1	620	0
133	7	"IncongProc3"	34	"Incong"	"green"	1	575	0
133	7	"IncongProc3"	35	"Incong"	"red"	1	1188	0
133	7	"IncongProc3"	36	"Incong"	"yellow"	1	1488	0
133	7	"IncongProc3"	37	"Incong"	"blue"	1	960	0
133	7	"IncongProc3"	39	"Incong"	"green"	1	1454	0
133	7	"IncongProc3"	40	"Incong"	"blue"	1	1016	0
133	7	"IncongProc3"	41	"Incong"	"red"	1	652	0
133	7	"IncongProc3"	42	"Incong"	"red"	1	574	0
133	7	"IncongProc3"	43	"Incong"	"green"	1	1395	0
133	7	"IncongProc3"	44	"Incong"	"yellow"	1	1247	0
133	7	"IncongProc3"	45	"Incong"	"red"	1	833	0
133	7	"IncongProc3"	46	"Incong"	"yellow"	1	1492	0
133	7	"IncongProc3"	47	"Incong"	"blue"	1	1164	0
136	2	"CongProc1"	3	"Cong"	"red"	1	390	0
136	2	"CongProc1"	4	"Cong"	"yellow"	1	434	0
136	2	"CongProc1"	5	"Cong"	"green"	1	661	0
136	2	"CongProc1"	6	"Cong"	"red"	1	750	0
136	2	"CongProc1"	7	"Cong"	"blue"	1	348	0
136	2	"CongProc1"	8	"Cong"	"yellow"	1	682	0
136	2	"CongProc1"	10	"Cong"	"blue"	1	745	0
136	2	"CongProc1"	11	"Cong"	"green"	1	391	0
136	2	"CongProc1"	12	"Cong"	"yellow"	1	371	0
136	2	"CongProc1"	13	"Cong"	"red"	1	496	0
136	2	"CongProc1"	14	"Cong"	"green"	1	569	0
136	2	"CongProc1"	15	"Cong"	"yellow"	1	494	0
136	2	"CongProc1"	16	"Cong"	"blue"	1	414	0
136	2	"CongProc1"	17	"Cong"	"blue"	1	401	0
136	2	"CongProc1"	18	"Cong"	"yellow"	1	629	0
136	2	"CongProc1"	19	"Cong"	"red"	1	584	0
136	2	"CongProc1"	21	"Cong"	"green"	1	349	0
136	2	"CongProc1"	22	"Cong"	"blue"	1	523	0
136	2	"CongProc1"	23	"Cong"	"red"	1	473	0
136	2	"CongProc1"	24	"Cong"	"yellow"	1	507	0
136	2	"CongProc1"	25	"Cong"	"red"	1	498	0
136	2	"CongProc1"	26	"Cong"	"blue"	1	482	0
136	2	"CongProc1"	27	"Cong"	"green"	1	475	0
136	2	"CongProc1"	28	"Cong"	"yellow"	1	460	0
136	2	"CongProc1"	30	"Cong"	"green"	1	508	0
136	2	"CongProc1"	31	"Cong"	"red"	1	483	0
136	2	"CongProc1"	32	"Cong"	"yellow"	1	636	0
136	2	"CongProc1"	35	"Cong"	"yellow"	1	579	0
136	2	"CongProc1"	36	"Cong"	"blue"	1	607	0
136	2	"CongProc1"	37	"Cong"	"red"	1	843	0
136	2	"CongProc1"	38	"Cong"	"green"	1	501	0
136	2	"CongProc1"	39	"Cong"	"blue"	1	637	0
136	2	"CongProc1"	40	"Cong"	"yellow"	1	720	0
136	2	"CongProc1"	41	"Cong"	"yellow"	1	455	0
136	2	"CongProc1"	42	"Cong"	"red"	1	585	0
136	2	"CongProc1"	45	"Cong"	"yellow"	1	494	0
136	2	"CongProc1"	46	"Cong"	"red"	1	550	0
136	2	"CongProc1"	47	"Cong"	"green"	1	940	0
136	2	"CongProc1"	48	"Cong"	"blue"	1	443	0
136	3	"CongProc2"	2	"Cong"	"red"	1	450	0
136	3	"CongProc2"	3	"Cong"	"yellow"	1	556	0
136	3	"CongProc2"	4	"Cong"	"blue"	1	514	0
136	3	"CongProc2"	5	"Cong"	"yellow"	1	489	0
136	3	"CongProc2"	9	"Cong"	"yellow"	1	770	0
136	3	"CongProc2"	11	"Cong"	"green"	1	444	0
136	3	"CongProc2"	12	"Cong"	"red"	1	398	0
136	3	"CongProc2"	13	"Cong"	"green"	1	538	0
136	3	"CongProc2"	14	"Cong"	"red"	1	497	0
136	3	"CongProc2"	16	"Cong"	"blue"	1	370	0
136	3	"CongProc2"	17	"Cong"	"green"	1	520	0
136	3	"CongProc2"	18	"Cong"	"yellow"	1	431	0
136	3	"CongProc2"	19	"Cong"	"blue"	1	594	0
136	3	"CongProc2"	20	"Cong"	"red"	1	582	0
136	3	"CongProc2"	21	"Cong"	"green"	1	642	0
136	3	"CongProc2"	22	"Cong"	"red"	1	668	0
136	3	"CongProc2"	23	"Cong"	"yellow"	1	678	0
136	3	"CongProc2"	24	"Cong"	"blue"	1	822	0
136	3	"CongProc2"	25	"Cong"	"yellow"	1	562	0
136	3	"CongProc2"	26	"Cong"	"red"	1	671	0
136	3	"CongProc2"	27	"Cong"	"blue"	1	920	0
136	3	"CongProc2"	28	"Cong"	"green"	1	584	0
136	3	"CongProc2"	29	"Cong"	"blue"	1	524	0
136	3	"CongProc2"	30	"Cong"	"red"	1	595	0
136	3	"CongProc2"	31	"Cong"	"green"	1	711	0
136	3	"CongProc2"	32	"Cong"	"yellow"	1	494	0
136	3	"CongProc2"	35	"Cong"	"yellow"	1	506	0
136	3	"CongProc2"	37	"Cong"	"blue"	1	826	0
136	3	"CongProc2"	38	"Cong"	"green"	1	492	0
136	3	"CongProc2"	39	"Cong"	"red"	1	492	0
136	3	"CongProc2"	40	"Cong"	"yellow"	1	668	0
136	3	"CongProc2"	41	"Cong"	"yellow"	1	374	0
136	3	"CongProc2"	43	"Cong"	"red"	1	671	0
136	3	"CongProc2"	44	"Cong"	"green"	1	528	0
136	3	"CongProc2"	45	"Cong"	"green"	1	431	0
136	3	"CongProc2"	48	"Cong"	"yellow"	1	811	0
136	5	"IncongProc1"	1	"Incong"	"red"	1	966	0
136	5	"IncongProc1"	2	"Incong"	"green"	1	1260	0
136	5	"IncongProc1"	3	"Incong"	"green"	1	469	0
136	5	"IncongProc1"	4	"Incong"	"blue"	1	590	0
136	5	"IncongProc1"	5	"Incong"	"red"	1	651	0
136	5	"IncongProc1"	6	"Incong"	"red"	1	717	0
136	5	"IncongProc1"	7	"Incong"	"green"	1	1261	0
136	5	"IncongProc1"	8	"Incong"	"yellow"	1	734	0
136	5	"IncongProc1"	9	"Incong"	"blue"	1	637	0
136	5	"IncongProc1"	10	"Incong"	"yellow"	1	519	0
136	5	"IncongProc1"	11	"Incong"	"yellow"	1	575	0
136	5	"IncongProc1"	13	"Incong"	"green"	1	740	0
136	5	"IncongProc1"	14	"Incong"	"green"	1	419	0
136	5	"IncongProc1"	15	"Incong"	"green"	1	374	0
136	5	"IncongProc1"	16	"Incong"	"yellow"	1	747	0
136	5	"IncongProc1"	17	"Incong"	"yellow"	1	377	0
136	5	"IncongProc1"	18	"Incong"	"blue"	1	1206	0
136	5	"IncongProc1"	19	"Incong"	"yellow"	1	522	0
136	5	"IncongProc1"	22	"Incong"	"red"	1	399	0
136	5	"IncongProc1"	23	"Incong"	"blue"	1	595	0
136	5	"IncongProc1"	24	"Incong"	"red"	1	903	0
136	5	"IncongProc1"	25	"Incong"	"blue"	1	535	0
136	5	"IncongProc1"	26	"Incong"	"blue"	1	574	0
136	5	"IncongProc1"	27	"Incong"	"green"	1	1123	0
136	5	"IncongProc1"	28	"Incong"	"red"	1	690	0
136	5	"IncongProc1"	29	"Incong"	"yellow"	1	555	0
136	5	"IncongProc1"	30	"Incong"	"blue"	1	865	0
136	5	"IncongProc1"	31	"Incong"	"red"	1	626	0
136	5	"IncongProc1"	33	"Incong"	"yellow"	1	1134	0
136	5	"IncongProc1"	35	"Incong"	"green"	1	261	0
136	5	"IncongProc1"	36	"Incong"	"yellow"	1	638	0
136	5	"IncongProc1"	37	"Incong"	"green"	1	641	0
136	5	"IncongProc1"	38	"Incong"	"yellow"	1	579	0
136	5	"IncongProc1"	39	"Incong"	"blue"	1	655	0
136	5	"IncongProc1"	40	"Incong"	"green"	1	1305	0
136	5	"IncongProc1"	41	"Incong"	"red"	1	849	0
136	5	"IncongProc1"	43	"Incong"	"red"	1	778	0
136	5	"IncongProc1"	44	"Incong"	"blue"	1	911	0
136	5	"IncongProc1"	45	"Incong"	"yellow"	1	606	0
136	5	"IncongProc1"	46	"Incong"	"blue"	1	706	0
136	5	"IncongProc1"	48	"Incong"	"red"	1	600	0
136	6	"IncongProc2"	1	"Incong"	"red"	1	664	0
136	6	"IncongProc2"	2	"Incong"	"yellow"	1	690	0
136	6	"IncongProc2"	3	"Incong"	"green"	1	626	0
136	6	"IncongProc2"	5	"Incong"	"yellow"	1	620	0
136	6	"IncongProc2"	6	"Incong"	"green"	1	1183	0
136	6	"IncongProc2"	7	"Incong"	"blue"	1	1036	0
136	6	"IncongProc2"	8	"Incong"	"green"	1	1094	0
136	6	"IncongProc2"	9	"Incong"	"blue"	1	702	0
136	6	"IncongProc2"	10	"Incong"	"blue"	1	502	0
136	6	"IncongProc2"	11	"Incong"	"red"	1	814	0
136	6	"IncongProc2"	12	"Incong"	"red"	1	506	0
136	6	"IncongProc2"	13	"Incong"	"blue"	1	1154	0
136	6	"IncongProc2"	14	"Incong"	"blue"	1	704	0
136	6	"IncongProc2"	15	"Incong"	"green"	1	424	0
136	6	"IncongProc2"	16	"Incong"	"green"	1	403	0
136	6	"IncongProc2"	17	"Incong"	"yellow"	1	423	0
136	6	"IncongProc2"	18	"Incong"	"green"	1	562	0
136	6	"IncongProc2"	19	"Incong"	"red"	1	632	0
136	6	"IncongProc2"	20	"Incong"	"blue"	1	466	0
136	6	"IncongProc2"	21	"Incong"	"yellow"	1	716	0
136	6	"IncongProc2"	22	"Incong"	"red"	1	859	0
136	6	"IncongProc2"	23	"Incong"	"yellow"	1	1292	0
136	6	"IncongProc2"	24	"Incong"	"red"	1	540	0
136	6	"IncongProc2"	25	"Incong"	"yellow"	1	506	0
136	6	"IncongProc2"	26	"Incong"	"blue"	1	578	0
136	6	"IncongProc2"	27	"Incong"	"green"	1	454	0
136	6	"IncongProc2"	28	"Incong"	"blue"	1	848	0
136	6	"IncongProc2"	29	"Incong"	"blue"	1	378	0
136	6	"IncongProc2"	30	"Incong"	"green"	1	879	0
136	6	"IncongProc2"	31	"Incong"	"yellow"	1	568	0
136	6	"IncongProc2"	32	"Incong"	"red"	1	829	0
136	6	"IncongProc2"	33	"Incong"	"yellow"	1	1176	0
136	6	"IncongProc2"	34	"Incong"	"green"	1	1125	0
136	6	"IncongProc2"	35	"Incong"	"red"	1	891	0
136	6	"IncongProc2"	36	"Incong"	"red"	1	507	0
136	6	"IncongProc2"	37	"Incong"	"yellow"	1	795	0
136	6	"IncongProc2"	38	"Incong"	"yellow"	1	607	0
136	6	"IncongProc2"	39	"Incong"	"blue"	1	946	0
136	6	"IncongProc2"	40	"Incong"	"blue"	1	624	0
136	6	"IncongProc2"	42	"Incong"	"red"	1	411	0
136	6	"IncongProc2"	43	"Incong"	"yellow"	1	749	0
136	6	"IncongProc2"	44	"Incong"	"red"	1	747	0
136	6	"IncongProc2"	46	"Incong"	"blue"	1	607	0
136	6	"IncongProc2"	47	"Incong"	"green"	1	634	0
136	6	"IncongProc2"	48	"Incong"	"green"	1	581	0
136	7	"IncongProc3"	1	"Incong"	"red"	1	689	0
136	7	"IncongProc3"	3	"Incong"	"red"	1	894	0
136	7	"IncongProc3"	4	"Incong"	"red"	1	550	0
136	7	"IncongProc3"	5	"Incong"	"green"	1	668	0
136	7	"IncongProc3"	7	"Incong"	"blue"	1	559	0
136	7	"IncongProc3"	8	"Incong"	"green"	1	668	0
136	7	"IncongProc3"	9	"Incong"	"yellow"	1	534	0
136	7	"IncongProc3"	10	"Incong"	"yellow"	1	340	0
136	7	"IncongProc3"	12	"Incong"	"yellow"	1	647	0
136	7	"IncongProc3"	14	"Incong"	"green"	1	722	0
136	7	"IncongProc3"	17	"Incong"	"yellow"	1	977	0
136	7	"IncongProc3"	18	"Incong"	"yellow"	1	502	0
136	7	"IncongProc3"	19	"Incong"	"red"	1	686	0
136	7	"IncongProc3"	21	"Incong"	"red"	1	394	0
136	7	"IncongProc3"	22	"Incong"	"blue"	1	638	0
136	7	"IncongProc3"	23	"Incong"	"yellow"	1	897	0
136	7	"IncongProc3"	24	"Incong"	"green"	1	537	0
136	7	"IncongProc3"	25	"Incong"	"blue"	1	1247	0
136	7	"IncongProc3"	26	"Incong"	"blue"	1	825	0
136	7	"IncongProc3"	27	"Incong"	"red"	1	756	0
136	7	"IncongProc3"	28	"Incong"	"yellow"	1	609	0
136	7	"IncongProc3"	29	"Incong"	"green"	1	493	0
136	7	"IncongProc3"	30	"Incong"	"green"	1	429	0
136	7	"IncongProc3"	31	"Incong"	"blue"	1	543	0
136	7	"IncongProc3"	32	"Incong"	"green"	1	1245	0
136	7	"IncongProc3"	33	"Incong"	"yellow"	1	935	0
136	7	"IncongProc3"	34	"Incong"	"red"	1	582	0
136	7	"IncongProc3"	35	"Incong"	"yellow"	1	923	0
136	7	"IncongProc3"	37	"Incong"	"yellow"	1	941	0
136	7	"IncongProc3"	38	"Incong"	"red"	1	635	0
136	7	"IncongProc3"	39	"Incong"	"blue"	1	1166	0
136	7	"IncongProc3"	41	"Incong"	"blue"	1	663	0
136	7	"IncongProc3"	42	"Incong"	"yellow"	1	1104	0
136	7	"IncongProc3"	43	"Incong"	"blue"	1	744	0
136	7	"IncongProc3"	44	"Incong"	"green"	1	470	0
136	7	"IncongProc3"	45	"Incong"	"green"	1	423	0
136	7	"IncongProc3"	46	"Incong"	"green"	1	378	0
136	7	"IncongProc3"	47	"Incong"	"red"	1	687	0
136	7	"IncongProc3"	48	"Incong"	"red"	1	399	0
144	2	"CongProc1"	1	"Cong"	"red"	1	621	0
144	2	"CongProc1"	2	"Cong"	"blue"	1	729	0
144	2	"CongProc1"	3	"Cong"	"green"	1	551	0
144	2	"CongProc1"	4	"Cong"	"yellow"	1	405	0
144	2	"CongProc1"	5	"Cong"	"red"	1	521	0
144	2	"CongProc1"	6	"Cong"	"yellow"	1	785	0
144	2	"CongProc1"	8	"Cong"	"green"	1	477	0
144	2	"CongProc1"	9	"Cong"	"blue"	1	702	0
144	2	"CongProc1"	10	"Cong"	"green"	1	414	0
144	2	"CongProc1"	11	"Cong"	"red"	1	481	0
144	2	"CongProc1"	12	"Cong"	"yellow"	1	354	0
144	2	"CongProc1"	13	"Cong"	"red"	1	512	0
144	2	"CongProc1"	16	"Cong"	"blue"	1	487	0
144	2	"CongProc1"	17	"Cong"	"red"	1	632	0
144	2	"CongProc1"	18	"Cong"	"green"	1	523	0
144	2	"CongProc1"	19	"Cong"	"blue"	1	465	0
144	2	"CongProc1"	20	"Cong"	"yellow"	1	499	0
144	2	"CongProc1"	21	"Cong"	"yellow"	1	403	0
144	2	"CongProc1"	22	"Cong"	"red"	1	567	0
144	2	"CongProc1"	23	"Cong"	"green"	1	452	0
144	2	"CongProc1"	24	"Cong"	"blue"	1	398	0
144	2	"CongProc1"	25	"Cong"	"red"	1	714	0
144	2	"CongProc1"	27	"Cong"	"yellow"	1	532	0
144	2	"CongProc1"	29	"Cong"	"red"	1	487	0
144	2	"CongProc1"	30	"Cong"	"green"	1	504	0
144	2	"CongProc1"	32	"Cong"	"yellow"	1	469	0
144	2	"CongProc1"	33	"Cong"	"red"	1	583	0
144	2	"CongProc1"	34	"Cong"	"green"	1	755	0
144	2	"CongProc1"	35	"Cong"	"blue"	1	393	0
144	2	"CongProc1"	36	"Cong"	"yellow"	1	453	0
144	2	"CongProc1"	37	"Cong"	"red"	1	487	0
144	2	"CongProc1"	38	"Cong"	"yellow"	1	520	0
144	2	"CongProc1"	39	"Cong"	"green"	1	631	0
144	2	"CongProc1"	40	"Cong"	"blue"	1	378	0
144	2	"CongProc1"	41	"Cong"	"green"	1	638	0
144	2	"CongProc1"	42	"Cong"	"yellow"	1	417	0
144	2	"CongProc1"	43	"Cong"	"red"	1	484	0
144	2	"CongProc1"	44	"Cong"	"blue"	1	565	0
144	2	"CongProc1"	45	"Cong"	"yellow"	1	466	0
144	2	"CongProc1"	46	"Cong"	"blue"	1	628	0
144	2	"CongProc1"	47	"Cong"	"red"	1	558	0
144	2	"CongProc1"	48	"Cong"	"green"	1	428	0
144	3	"CongProc2"	1	"Cong"	"red"	1	536	0
144	3	"CongProc2"	2	"Cong"	"yellow"	1	559	0
144	3	"CongProc2"	3	"Cong"	"blue"	1	604	0
144	3	"CongProc2"	4	"Cong"	"green"	1	392	0
144	3	"CongProc2"	5	"Cong"	"yellow"	1	476	0
144	3	"CongProc2"	6	"Cong"	"red"	1	493	0
144	3	"CongProc2"	7	"Cong"	"blue"	1	581	0
144	3	"CongProc2"	8	"Cong"	"green"	1	386	0
144	3	"CongProc2"	9	"Cong"	"blue"	1	502	0
144	3	"CongProc2"	10	"Cong"	"green"	1	398	0
144	3	"CongProc2"	11	"Cong"	"yellow"	1	466	0
144	3	"CongProc2"	12	"Cong"	"red"	1	387	0
144	3	"CongProc2"	13	"Cong"	"red"	1	472	0
144	3	"CongProc2"	14	"Cong"	"green"	1	650	0
144	3	"CongProc2"	15	"Cong"	"blue"	1	364	0
144	3	"CongProc2"	16	"Cong"	"yellow"	1	497	0
144	3	"CongProc2"	17	"Cong"	"yellow"	1	385	0
144	3	"CongProc2"	18	"Cong"	"blue"	1	854	0
144	3	"CongProc2"	19	"Cong"	"green"	1	344	0
144	3	"CongProc2"	20	"Cong"	"red"	1	445	0
144	3	"CongProc2"	21	"Cong"	"yellow"	1	455	0
144	3	"CongProc2"	22	"Cong"	"red"	1	841	0
144	3	"CongProc2"	23	"Cong"	"green"	1	619	0
144	3	"CongProc2"	24	"Cong"	"blue"	1	382	0
144	3	"CongProc2"	26	"Cong"	"yellow"	1	491	0
144	3	"CongProc2"	27	"Cong"	"green"	1	683	0
144	3	"CongProc2"	28	"Cong"	"blue"	1	827	0
144	3	"CongProc2"	29	"Cong"	"blue"	1	350	0
144	3	"CongProc2"	31	"Cong"	"red"	1	833	0
144	3	"CongProc2"	32	"Cong"	"green"	1	707	0
144	3	"CongProc2"	33	"Cong"	"blue"	1	547	0
144	3	"CongProc2"	34	"Cong"	"yellow"	1	553	0
144	3	"CongProc2"	35	"Cong"	"red"	1	463	0
144	3	"CongProc2"	36	"Cong"	"green"	1	560	0
144	3	"CongProc2"	37	"Cong"	"red"	1	565	0
144	3	"CongProc2"	38	"Cong"	"blue"	1	763	0
144	3	"CongProc2"	39	"Cong"	"green"	1	528	0
144	3	"CongProc2"	40	"Cong"	"yellow"	1	511	0
144	3	"CongProc2"	42	"Cong"	"yellow"	1	631	0
144	3	"CongProc2"	43	"Cong"	"red"	1	546	0
144	3	"CongProc2"	44	"Cong"	"blue"	1	352	0
144	3	"CongProc2"	45	"Cong"	"yellow"	1	502	0
144	3	"CongProc2"	46	"Cong"	"red"	1	446	0
144	3	"CongProc2"	47	"Cong"	"blue"	1	632	0
144	5	"IncongProc1"	1	"Incong"	"red"	1	803	0
144	5	"IncongProc1"	2	"Incong"	"red"	1	471	0
144	5	"IncongProc1"	3	"Incong"	"blue"	1	633	0
144	5	"IncongProc1"	4	"Incong"	"green"	1	579	0
144	5	"IncongProc1"	5	"Incong"	"red"	1	472	0
144	5	"IncongProc1"	6	"Incong"	"blue"	1	601	0
144	5	"IncongProc1"	7	"Incong"	"blue"	1	469	0
144	5	"IncongProc1"	8	"Incong"	"yellow"	1	575	0
144	5	"IncongProc1"	9	"Incong"	"yellow"	1	395	0
144	5	"IncongProc1"	10	"Incong"	"green"	1	463	0
144	5	"IncongProc1"	11	"Incong"	"green"	1	433	0
144	5	"IncongProc1"	12	"Incong"	"yellow"	1	731	0
144	5	"IncongProc1"	13	"Incong"	"green"	1	570	0
144	5	"IncongProc1"	14	"Incong"	"red"	1	503	0
144	5	"IncongProc1"	15	"Incong"	"yellow"	1	887	0
144	5	"IncongProc1"	17	"Incong"	"red"	1	685	0
144	5	"IncongProc1"	18	"Incong"	"blue"	1	613	0
144	5	"IncongProc1"	19	"Incong"	"blue"	1	1017	0
144	5	"IncongProc1"	20	"Incong"	"yellow"	1	708	0
144	5	"IncongProc1"	21	"Incong"	"blue"	1	811	0
144	5	"IncongProc1"	22	"Incong"	"green"	1	471	0
144	5	"IncongProc1"	23	"Incong"	"yellow"	1	728	0
144	5	"IncongProc1"	24	"Incong"	"red"	1	615	0
144	5	"IncongProc1"	26	"Incong"	"blue"	1	796	0
144	5	"IncongProc1"	27	"Incong"	"yellow"	1	608	0
144	5	"IncongProc1"	28	"Incong"	"green"	1	756	0
144	5	"IncongProc1"	29	"Incong"	"blue"	1	721	0
144	5	"IncongProc1"	30	"Incong"	"red"	1	617	0
144	5	"IncongProc1"	31	"Incong"	"red"	1	476	0
144	5	"IncongProc1"	32	"Incong"	"red"	1	413	0
144	5	"IncongProc1"	33	"Incong"	"green"	1	576	0
144	5	"IncongProc1"	34	"Incong"	"blue"	1	621	0
144	5	"IncongProc1"	35	"Incong"	"green"	1	632	0
144	5	"IncongProc1"	36	"Incong"	"yellow"	1	475	0
144	5	"IncongProc1"	37	"Incong"	"red"	1	459	0
144	5	"IncongProc1"	38	"Incong"	"red"	1	469	0
144	5	"IncongProc1"	39	"Incong"	"blue"	1	654	0
144	5	"IncongProc1"	40	"Incong"	"yellow"	1	584	0
144	5	"IncongProc1"	41	"Incong"	"blue"	1	741	0
144	5	"IncongProc1"	42	"Incong"	"green"	1	516	0
144	5	"IncongProc1"	43	"Incong"	"green"	1	555	0
144	5	"IncongProc1"	44	"Incong"	"red"	1	529	0
144	5	"IncongProc1"	45	"Incong"	"blue"	1	440	0
144	5	"IncongProc1"	46	"Incong"	"green"	1	506	0
144	5	"IncongProc1"	47	"Incong"	"yellow"	1	674	0
144	5	"IncongProc1"	48	"Incong"	"yellow"	1	458	0
144	6	"IncongProc2"	1	"Incong"	"red"	1	526	0
144	6	"IncongProc2"	2	"Incong"	"yellow"	1	940	0
144	6	"IncongProc2"	3	"Incong"	"blue"	1	579	0
144	6	"IncongProc2"	4	"Incong"	"red"	1	592	0
144	6	"IncongProc2"	5	"Incong"	"blue"	1	724	0
144	6	"IncongProc2"	6	"Incong"	"green"	1	532	0
144	6	"IncongProc2"	7	"Incong"	"yellow"	1	618	0
144	6	"IncongProc2"	8	"Incong"	"blue"	1	558	0
144	6	"IncongProc2"	9	"Incong"	"green"	1	499	0
144	6	"IncongProc2"	10	"Incong"	"yellow"	1	675	0
144	6	"IncongProc2"	11	"Incong"	"red"	1	532	0
144	6	"IncongProc2"	12	"Incong"	"green"	1	835	0
144	6	"IncongProc2"	14	"Incong"	"yellow"	1	550	0
144	6	"IncongProc2"	15	"Incong"	"green"	1	1044	0
144	6	"IncongProc2"	16	"Incong"	"green"	1	829	0
144	6	"IncongProc2"	17	"Incong"	"yellow"	1	657	0
144	6	"IncongProc2"	18	"Incong"	"blue"	1	489	0
144	6	"IncongProc2"	19	"Incong"	"blue"	1	466	0
144	6	"IncongProc2"	20	"Incong"	"blue"	1	387	0
144	6	"IncongProc2"	21	"Incong"	"green"	1	680	0
144	6	"IncongProc2"	22	"Incong"	"red"	1	521	0
144	6	"IncongProc2"	23	"Incong"	"yellow"	1	728	0
144	6	"IncongProc2"	24	"Incong"	"red"	1	647	0
144	6	"IncongProc2"	25	"Incong"	"yellow"	1	521	0
144	6	"IncongProc2"	26	"Incong"	"green"	1	1072	0
144	6	"IncongProc2"	27	"Incong"	"green"	1	361	0
144	6	"IncongProc2"	29	"Incong"	"blue"	1	1066	0
144	6	"IncongProc2"	30	"Incong"	"blue"	1	747	0
144	6	"IncongProc2"	32	"Incong"	"green"	1	981	0
144	6	"IncongProc2"	33	"Incong"	"yellow"	1	626	0
144	6	"IncongProc2"	34	"Incong"	"red"	1	757	0
144	6	"IncongProc2"	35	"Incong"	"blue"	1	906	0
144	6	"IncongProc2"	36	"Incong"	"red"	1	954	0
144	6	"IncongProc2"	37	"Incong"	"green"	1	1056	0
144	6	"IncongProc2"	38	"Incong"	"red"	1	762	0
144	6	"IncongProc2"	39	"Incong"	"yellow"	1	607	0
144	6	"IncongProc2"	40	"Incong"	"red"	1	755	0
144	6	"IncongProc2"	42	"Incong"	"yellow"	1	1021	0
144	6	"IncongProc2"	43	"Incong"	"yellow"	1	440	0
144	6	"IncongProc2"	44	"Incong"	"blue"	1	530	0
144	6	"IncongProc2"	45	"Incong"	"red"	1	785	0
144	6	"IncongProc2"	46	"Incong"	"blue"	1	582	0
144	6	"IncongProc2"	47	"Incong"	"green"	1	370	0
144	6	"IncongProc2"	48	"Incong"	"green"	1	416	0
144	7	"IncongProc3"	1	"Incong"	"yellow"	1	812	0
144	7	"IncongProc3"	2	"Incong"	"red"	1	584	0
144	7	"IncongProc3"	3	"Incong"	"yellow"	1	588	0
144	7	"IncongProc3"	4	"Incong"	"green"	1	569	0
144	7	"IncongProc3"	5	"Incong"	"red"	1	526	0
144	7	"IncongProc3"	6	"Incong"	"green"	1	750	0
144	7	"IncongProc3"	7	"Incong"	"red"	1	740	0
144	7	"IncongProc3"	8	"Incong"	"blue"	1	458	0
144	7	"IncongProc3"	9	"Incong"	"blue"	1	356	0
144	7	"IncongProc3"	10	"Incong"	"green"	1	474	0
144	7	"IncongProc3"	11	"Incong"	"blue"	1	467	0
144	7	"IncongProc3"	12	"Incong"	"yellow"	1	564	0
144	7	"IncongProc3"	13	"Incong"	"blue"	1	442	0
144	7	"IncongProc3"	15	"Incong"	"red"	1	626	0
144	7	"IncongProc3"	17	"Incong"	"green"	1	545	0
144	7	"IncongProc3"	18	"Incong"	"blue"	1	487	0
144	7	"IncongProc3"	24	"Incong"	"blue"	1	828	0
144	7	"IncongProc3"	25	"Incong"	"blue"	1	391	0
144	7	"IncongProc3"	26	"Incong"	"yellow"	1	675	0
144	7	"IncongProc3"	27	"Incong"	"yellow"	1	379	0
144	7	"IncongProc3"	28	"Incong"	"red"	1	592	0
144	7	"IncongProc3"	30	"Incong"	"green"	1	607	0
144	7	"IncongProc3"	31	"Incong"	"blue"	1	747	0
144	7	"IncongProc3"	32	"Incong"	"red"	1	929	0
144	7	"IncongProc3"	33	"Incong"	"red"	1	543	0
144	7	"IncongProc3"	34	"Incong"	"green"	1	749	0
144	7	"IncongProc3"	35	"Incong"	"blue"	1	403	0
144	7	"IncongProc3"	36	"Incong"	"yellow"	1	631	0
144	7	"IncongProc3"	38	"Incong"	"green"	1	496	0
144	7	"IncongProc3"	39	"Incong"	"blue"	1	496	0
144	7	"IncongProc3"	40	"Incong"	"yellow"	1	664	0
144	7	"IncongProc3"	41	"Incong"	"green"	1	625	0
144	7	"IncongProc3"	42	"Incong"	"red"	1	468	0
144	7	"IncongProc3"	43	"Incong"	"yellow"	1	829	0
144	7	"IncongProc3"	44	"Incong"	"yellow"	1	448	0
144	7	"IncongProc3"	45	"Incong"	"green"	1	834	0
144	7	"IncongProc3"	46	"Incong"	"blue"	1	365	0
144	7	"IncongProc3"	47	"Incong"	"red"	1	450	0
144	7	"IncongProc3"	48	"Incong"	"red"	1	756	0
147	2	"CongProc1"	2	"Cong"	"red"	1	553	0
147	2	"CongProc1"	4	"Cong"	"yellow"	1	590	0
147	2	"CongProc1"	5	"Cong"	"blue"	1	907	0
147	2	"CongProc1"	7	"Cong"	"green"	1	784	0
147	2	"CongProc1"	8	"Cong"	"red"	1	549	0
147	2	"CongProc1"	10	"Cong"	"red"	1	913	0
147	2	"CongProc1"	12	"Cong"	"green"	1	915	0
147	2	"CongProc1"	13	"Cong"	"green"	1	514	0
147	2	"CongProc1"	14	"Cong"	"red"	1	665	0
147	2	"CongProc1"	15	"Cong"	"blue"	1	571	0
147	2	"CongProc1"	16	"Cong"	"yellow"	1	552	0
147	2	"CongProc1"	17	"Cong"	"red"	1	710	0
147	2	"CongProc1"	18	"Cong"	"green"	1	517	0
147	2	"CongProc1"	19	"Cong"	"blue"	1	605	0
147	2	"CongProc1"	20	"Cong"	"yellow"	1	609	0
147	2	"CongProc1"	21	"Cong"	"yellow"	1	500	0
147	2	"CongProc1"	22	"Cong"	"red"	1	524	0
147	2	"CongProc1"	23	"Cong"	"blue"	1	907	0
147	2	"CongProc1"	24	"Cong"	"green"	1	706	0
147	2	"CongProc1"	25	"Cong"	"yellow"	1	506	0
147	2	"CongProc1"	27	"Cong"	"red"	1	597	0
147	2	"CongProc1"	28	"Cong"	"blue"	1	521	0
147	2	"CongProc1"	29	"Cong"	"green"	1	824	0
147	2	"CongProc1"	30	"Cong"	"blue"	1	899	0
147	2	"CongProc1"	31	"Cong"	"yellow"	1	603	0
147	2	"CongProc1"	32	"Cong"	"red"	1	511	0
147	2	"CongProc1"	33	"Cong"	"red"	1	430	0
147	2	"CongProc1"	34	"Cong"	"yellow"	1	617	0
147	2	"CongProc1"	35	"Cong"	"blue"	1	548	0
147	2	"CongProc1"	36	"Cong"	"green"	1	458	0
147	2	"CongProc1"	37	"Cong"	"green"	1	452	0
147	2	"CongProc1"	38	"Cong"	"red"	1	558	0
147	2	"CongProc1"	39	"Cong"	"blue"	1	467	0
147	2	"CongProc1"	40	"Cong"	"yellow"	1	436	0
147	2	"CongProc1"	41	"Cong"	"yellow"	1	407	0
147	2	"CongProc1"	42	"Cong"	"blue"	1	882	0
147	2	"CongProc1"	43	"Cong"	"red"	1	531	0
147	2	"CongProc1"	44	"Cong"	"green"	1	570	0
147	2	"CongProc1"	46	"Cong"	"green"	1	854	0
147	2	"CongProc1"	47	"Cong"	"yellow"	1	528	0
147	2	"CongProc1"	48	"Cong"	"red"	1	566	0
147	3	"CongProc2"	1	"Cong"	"blue"	1	779	0
147	3	"CongProc2"	2	"Cong"	"yellow"	1	527	0
147	3	"CongProc2"	3	"Cong"	"green"	1	446	0
147	3	"CongProc2"	4	"Cong"	"red"	1	464	0
147	3	"CongProc2"	5	"Cong"	"blue"	1	825	0
147	3	"CongProc2"	6	"Cong"	"yellow"	1	444	0
147	3	"CongProc2"	7	"Cong"	"green"	1	398	0
147	3	"CongProc2"	8	"Cong"	"red"	1	482	0
147	3	"CongProc2"	9	"Cong"	"red"	1	459	0
147	3	"CongProc2"	10	"Cong"	"green"	1	524	0
147	3	"CongProc2"	11	"Cong"	"yellow"	1	435	0
147	3	"CongProc2"	12	"Cong"	"blue"	1	469	0
147	3	"CongProc2"	13	"Cong"	"blue"	1	495	0
147	3	"CongProc2"	14	"Cong"	"yellow"	1	438	0
147	3	"CongProc2"	15	"Cong"	"red"	1	601	0
147	3	"CongProc2"	16	"Cong"	"green"	1	685	0
147	3	"CongProc2"	17	"Cong"	"yellow"	1	446	0
147	3	"CongProc2"	18	"Cong"	"green"	1	624	0
147	3	"CongProc2"	19	"Cong"	"blue"	1	651	0
147	3	"CongProc2"	20	"Cong"	"red"	1	428	0
147	3	"CongProc2"	21	"Cong"	"yellow"	1	447	0
147	3	"CongProc2"	22	"Cong"	"green"	1	393	0
147	3	"CongProc2"	23	"Cong"	"red"	1	534	0
147	3	"CongProc2"	24	"Cong"	"blue"	1	404	0
147	3	"CongProc2"	27	"Cong"	"yellow"	1	798	0
147	3	"CongProc2"	29	"Cong"	"red"	1	445	0
147	3	"CongProc2"	30	"Cong"	"blue"	1	543	0
147	3	"CongProc2"	31	"Cong"	"yellow"	1	717	0
147	3	"CongProc2"	32	"Cong"	"green"	1	804	0
147	3	"CongProc2"	33	"Cong"	"green"	1	400	0
147	3	"CongProc2"	34	"Cong"	"red"	1	564	0
147	3	"CongProc2"	35	"Cong"	"blue"	1	474	0
147	3	"CongProc2"	36	"Cong"	"yellow"	1	523	0
147	3	"CongProc2"	38	"Cong"	"green"	1	834	0
147	3	"CongProc2"	39	"Cong"	"red"	1	484	0
147	3	"CongProc2"	40	"Cong"	"yellow"	1	549	0
147	3	"CongProc2"	41	"Cong"	"yellow"	1	435	0
147	3	"CongProc2"	42	"Cong"	"red"	1	790	0
147	3	"CongProc2"	43	"Cong"	"green"	1	546	0
147	3	"CongProc2"	44	"Cong"	"blue"	1	472	0
147	3	"CongProc2"	45	"Cong"	"green"	1	481	0
147	3	"CongProc2"	46	"Cong"	"red"	1	610	0
147	3	"CongProc2"	47	"Cong"	"blue"	1	805	0
147	3	"CongProc2"	48	"Cong"	"yellow"	1	521	0
147	5	"IncongProc1"	1	"Incong"	"red"	1	1014	0
147	5	"IncongProc1"	2	"Incong"	"blue"	1	498	0
147	5	"IncongProc1"	3	"Incong"	"yellow"	1	706	0
147	5	"IncongProc1"	4	"Incong"	"red"	1	1050	0
147	5	"IncongProc1"	5	"Incong"	"blue"	1	740	0
147	5	"IncongProc1"	6	"Incong"	"red"	1	786	0
147	5	"IncongProc1"	7	"Incong"	"green"	1	583	0
147	5	"IncongProc1"	8	"Incong"	"green"	1	468	0
147	5	"IncongProc1"	9	"Incong"	"yellow"	1	541	0
147	5	"IncongProc1"	10	"Incong"	"yellow"	1	523	0
147	5	"IncongProc1"	11	"Incong"	"green"	1	1034	0
147	5	"IncongProc1"	12	"Incong"	"blue"	1	524	0
147	5	"IncongProc1"	16	"Incong"	"red"	1	627	0
147	5	"IncongProc1"	17	"Incong"	"yellow"	1	677	0
147	5	"IncongProc1"	18	"Incong"	"red"	1	511	0
147	5	"IncongProc1"	19	"Incong"	"blue"	1	550	0
147	5	"IncongProc1"	20	"Incong"	"blue"	1	492	0
147	5	"IncongProc1"	21	"Incong"	"green"	1	581	0
147	5	"IncongProc1"	22	"Incong"	"green"	1	545	0
147	5	"IncongProc1"	24	"Incong"	"blue"	1	1049	0
147	5	"IncongProc1"	25	"Incong"	"blue"	1	491	0
147	5	"IncongProc1"	26	"Incong"	"red"	1	755	0
147	5	"IncongProc1"	27	"Incong"	"red"	1	465	0
147	5	"IncongProc1"	28	"Incong"	"blue"	1	922	0
147	5	"IncongProc1"	29	"Incong"	"green"	1	801	0
147	5	"IncongProc1"	30	"Incong"	"green"	1	461	0
147	5	"IncongProc1"	31	"Incong"	"yellow"	1	479	0
147	5	"IncongProc1"	32	"Incong"	"red"	1	663	0
147	5	"IncongProc1"	33	"Incong"	"yellow"	1	912	0
147	5	"IncongProc1"	34	"Incong"	"green"	1	776	0
147	5	"IncongProc1"	36	"Incong"	"blue"	1	863	0
147	5	"IncongProc1"	39	"Incong"	"red"	1	499	0
147	5	"IncongProc1"	40	"Incong"	"red"	1	507	0
147	5	"IncongProc1"	41	"Incong"	"green"	1	802	0
147	5	"IncongProc1"	42	"Incong"	"green"	1	550	0
147	5	"IncongProc1"	43	"Incong"	"yellow"	1	524	0
147	5	"IncongProc1"	44	"Incong"	"green"	1	1059	0
147	5	"IncongProc1"	45	"Incong"	"blue"	1	700	0
147	5	"IncongProc1"	46	"Incong"	"yellow"	1	972	0
147	5	"IncongProc1"	47	"Incong"	"red"	1	650	0
147	6	"IncongProc2"	1	"Incong"	"yellow"	1	917	0
147	6	"IncongProc2"	2	"Incong"	"red"	1	597	0
147	6	"IncongProc2"	3	"Incong"	"yellow"	1	585	0
147	6	"IncongProc2"	4	"Incong"	"blue"	1	749	0
147	6	"IncongProc2"	5	"Incong"	"red"	1	731	0
147	6	"IncongProc2"	6	"Incong"	"green"	1	682	0
147	6	"IncongProc2"	7	"Incong"	"green"	1	427	0
147	6	"IncongProc2"	8	"Incong"	"red"	1	669	0
147	6	"IncongProc2"	9	"Incong"	"blue"	1	879	0
147	6	"IncongProc2"	10	"Incong"	"yellow"	1	583	0
147	6	"IncongProc2"	11	"Incong"	"blue"	1	804	0
147	6	"IncongProc2"	12	"Incong"	"green"	1	616	0
147	6	"IncongProc2"	13	"Incong"	"blue"	1	579	0
147	6	"IncongProc2"	14	"Incong"	"green"	1	616	0
147	6	"IncongProc2"	15	"Incong"	"yellow"	1	635	0
147	6	"IncongProc2"	16	"Incong"	"blue"	1	798	0
147	6	"IncongProc2"	17	"Incong"	"green"	1	690	0
147	6	"IncongProc2"	18	"Incong"	"yellow"	1	683	0
147	6	"IncongProc2"	20	"Incong"	"blue"	1	525	0
147	6	"IncongProc2"	21	"Incong"	"red"	1	420	0
147	6	"IncongProc2"	22	"Incong"	"red"	1	439	0
147	6	"IncongProc2"	23	"Incong"	"yellow"	1	730	0
147	6	"IncongProc2"	24	"Incong"	"red"	1	1144	0
147	6	"IncongProc2"	25	"Incong"	"yellow"	1	798	0
147	6	"IncongProc2"	27	"Incong"	"blue"	1	418	0
147	6	"IncongProc2"	28	"Incong"	"green"	1	598	0
147	6	"IncongProc2"	30	"Incong"	"blue"	1	692	0
147	6	"IncongProc2"	31	"Incong"	"red"	1	524	0
147	6	"IncongProc2"	32	"Incong"	"red"	1	523	0
147	6	"IncongProc2"	33	"Incong"	"red"	1	482	0
147	6	"IncongProc2"	34	"Incong"	"yellow"	1	706	0
147	6	"IncongProc2"	35	"Incong"	"green"	1	826	0
147	6	"IncongProc2"	36	"Incong"	"green"	1	509	0
147	6	"IncongProc2"	37	"Incong"	"blue"	1	524	0
147	6	"IncongProc2"	40	"Incong"	"green"	1	1206	0
147	6	"IncongProc2"	41	"Incong"	"green"	1	418	0
147	6	"IncongProc2"	42	"Incong"	"blue"	1	693	0
147	6	"IncongProc2"	43	"Incong"	"red"	1	557	0
147	6	"IncongProc2"	44	"Incong"	"red"	1	803	0
147	6	"IncongProc2"	45	"Incong"	"yellow"	1	759	0
147	6	"IncongProc2"	46	"Incong"	"yellow"	1	412	0
147	6	"IncongProc2"	47	"Incong"	"green"	1	1192	0
147	7	"IncongProc3"	2	"Incong"	"yellow"	1	348	0
147	7	"IncongProc3"	3	"Incong"	"green"	1	594	0
147	7	"IncongProc3"	4	"Incong"	"green"	1	390	0
147	7	"IncongProc3"	5	"Incong"	"yellow"	1	562	0
147	7	"IncongProc3"	6	"Incong"	"red"	1	568	0
147	7	"IncongProc3"	7	"Incong"	"blue"	1	509	0
147	7	"IncongProc3"	9	"Incong"	"red"	1	404	0
147	7	"IncongProc3"	10	"Incong"	"green"	1	672	0
147	7	"IncongProc3"	11	"Incong"	"blue"	1	609	0
147	7	"IncongProc3"	12	"Incong"	"blue"	1	412	0
147	7	"IncongProc3"	13	"Incong"	"blue"	1	376	0
147	7	"IncongProc3"	14	"Incong"	"red"	1	708	0
147	7	"IncongProc3"	15	"Incong"	"green"	1	836	0
147	7	"IncongProc3"	18	"Incong"	"red"	1	483	0
147	7	"IncongProc3"	19	"Incong"	"yellow"	1	636	0
147	7	"IncongProc3"	20	"Incong"	"green"	1	623	0
147	7	"IncongProc3"	21	"Incong"	"green"	1	457	0
147	7	"IncongProc3"	22	"Incong"	"yellow"	1	955	0
147	7	"IncongProc3"	23	"Incong"	"blue"	1	729	0
147	7	"IncongProc3"	27	"Incong"	"green"	1	1130	0
147	7	"IncongProc3"	28	"Incong"	"blue"	1	1121	0
147	7	"IncongProc3"	29	"Incong"	"blue"	1	392	0
147	7	"IncongProc3"	30	"Incong"	"yellow"	1	636	0
147	7	"IncongProc3"	31	"Incong"	"blue"	1	479	0
147	7	"IncongProc3"	32	"Incong"	"red"	1	623	0
147	7	"IncongProc3"	33	"Incong"	"yellow"	1	554	0
147	7	"IncongProc3"	34	"Incong"	"yellow"	1	472	0
147	7	"IncongProc3"	36	"Incong"	"green"	1	1013	0
147	7	"IncongProc3"	37	"Incong"	"blue"	1	544	0
147	7	"IncongProc3"	38	"Incong"	"green"	1	638	0
147	7	"IncongProc3"	39	"Incong"	"blue"	1	393	0
147	7	"IncongProc3"	40	"Incong"	"green"	1	573	0
147	7	"IncongProc3"	41	"Incong"	"yellow"	1	1010	0
147	7	"IncongProc3"	42	"Incong"	"yellow"	1	397	0
147	7	"IncongProc3"	43	"Incong"	"red"	1	737	0
147	7	"IncongProc3"	44	"Incong"	"red"	1	464	0
147	7	"IncongProc3"	45	"Incong"	"red"	1	369	0
147	7	"IncongProc3"	46	"Incong"	"green"	1	999	0
147	7	"IncongProc3"	47	"Incong"	"yellow"	1	499	0
147	7	"IncongProc3"	48	"Incong"	"blue"	1	611	0
151	2	"CongProc1"	2	"Cong"	"yellow"	1	678	0
151	2	"CongProc1"	3	"Cong"	"red"	1	591	0
151	2	"CongProc1"	4	"Cong"	"green"	1	779	0
151	2	"CongProc1"	5	"Cong"	"yellow"	1	640	0
151	2	"CongProc1"	6	"Cong"	"green"	1	698	0
151	2	"CongProc1"	7	"Cong"	"red"	1	618	0
151	2	"CongProc1"	8	"Cong"	"blue"	1	461	0
151	2	"CongProc1"	9	"Cong"	"blue"	1	478	0
151	2	"CongProc1"	13	"Cong"	"red"	1	1016	0
151	2	"CongProc1"	14	"Cong"	"yellow"	1	596	0
151	2	"CongProc1"	15	"Cong"	"green"	1	592	0
151	2	"CongProc1"	16	"Cong"	"blue"	1	596	0
151	2	"CongProc1"	17	"Cong"	"yellow"	1	632	0
151	2	"CongProc1"	18	"Cong"	"red"	1	619	0
151	2	"CongProc1"	19	"Cong"	"green"	1	518	0
151	2	"CongProc1"	20	"Cong"	"blue"	1	565	0
151	2	"CongProc1"	21	"Cong"	"red"	1	563	0
151	2	"CongProc1"	22	"Cong"	"green"	1	528	0
151	2	"CongProc1"	23	"Cong"	"yellow"	1	615	0
151	2	"CongProc1"	24	"Cong"	"blue"	1	674	0
151	2	"CongProc1"	25	"Cong"	"red"	1	587	0
151	2	"CongProc1"	26	"Cong"	"yellow"	1	583	0
151	2	"CongProc1"	27	"Cong"	"blue"	1	572	0
151	2	"CongProc1"	28	"Cong"	"green"	1	641	0
151	2	"CongProc1"	29	"Cong"	"yellow"	1	635	0
151	2	"CongProc1"	30	"Cong"	"green"	1	686	0
151	2	"CongProc1"	31	"Cong"	"red"	1	695	0
151	2	"CongProc1"	32	"Cong"	"blue"	1	495	0
151	2	"CongProc1"	33	"Cong"	"green"	1	687	0
151	2	"CongProc1"	34	"Cong"	"blue"	1	575	0
151	2	"CongProc1"	35	"Cong"	"yellow"	1	652	0
151	2	"CongProc1"	36	"Cong"	"red"	1	366	0
151	2	"CongProc1"	37	"Cong"	"red"	1	579	0
151	2	"CongProc1"	39	"Cong"	"green"	1	768	0
151	2	"CongProc1"	40	"Cong"	"yellow"	1	365	0
151	2	"CongProc1"	41	"Cong"	"red"	1	579	0
151	2	"CongProc1"	42	"Cong"	"blue"	1	439	0
151	2	"CongProc1"	43	"Cong"	"green"	1	330	0
151	2	"CongProc1"	44	"Cong"	"yellow"	1	345	0
151	2	"CongProc1"	45	"Cong"	"yellow"	1	503	0
151	2	"CongProc1"	46	"Cong"	"red"	1	687	0
151	2	"CongProc1"	47	"Cong"	"blue"	1	783	0
151	2	"CongProc1"	48	"Cong"	"green"	1	292	0
151	3	"CongProc2"	3	"Cong"	"green"	1	757	0
151	3	"CongProc2"	5	"Cong"	"green"	1	776	0
151	3	"CongProc2"	6	"Cong"	"blue"	1	757	0
151	3	"CongProc2"	7	"Cong"	"yellow"	1	683	0
151	3	"CongProc2"	8	"Cong"	"red"	1	588	0
151	3	"CongProc2"	11	"Cong"	"blue"	1	1061	0
151	3	"CongProc2"	14	"Cong"	"blue"	1	822	0
151	3	"CongProc2"	15	"Cong"	"red"	1	889	0
151	3	"CongProc2"	16	"Cong"	"green"	1	698	0
151	3	"CongProc2"	18	"Cong"	"green"	1	990	0
151	3	"CongProc2"	20	"Cong"	"yellow"	1	588	0
151	3	"CongProc2"	21	"Cong"	"yellow"	1	545	0
151	3	"CongProc2"	23	"Cong"	"blue"	1	594	0
151	3	"CongProc2"	24	"Cong"	"red"	1	614	0
151	3	"CongProc2"	25	"Cong"	"yellow"	1	882	0
151	3	"CongProc2"	26	"Cong"	"red"	1	610	0
151	3	"CongProc2"	27	"Cong"	"green"	1	910	0
151	3	"CongProc2"	28	"Cong"	"blue"	1	725	0
151	3	"CongProc2"	30	"Cong"	"green"	1	489	0
151	3	"CongProc2"	31	"Cong"	"blue"	1	794	0
151	3	"CongProc2"	32	"Cong"	"yellow"	1	606	0
151	3	"CongProc2"	33	"Cong"	"red"	1	770	0
151	3	"CongProc2"	34	"Cong"	"green"	1	895	0
151	3	"CongProc2"	35	"Cong"	"yellow"	1	607	0
151	3	"CongProc2"	36	"Cong"	"blue"	1	891	0
151	3	"CongProc2"	38	"Cong"	"yellow"	1	528	0
151	3	"CongProc2"	39	"Cong"	"blue"	1	694	0
151	3	"CongProc2"	40	"Cong"	"red"	1	550	0
151	3	"CongProc2"	41	"Cong"	"yellow"	1	1004	0
151	3	"CongProc2"	44	"Cong"	"blue"	1	1000	0
151	3	"CongProc2"	47	"Cong"	"blue"	1	951	0
151	3	"CongProc2"	48	"Cong"	"yellow"	1	989	0
151	5	"IncongProc1"	2	"Incong"	"yellow"	1	1051	0
151	5	"IncongProc1"	3	"Incong"	"yellow"	1	573	0
151	5	"IncongProc1"	4	"Incong"	"red"	1	1003	0
151	5	"IncongProc1"	5	"Incong"	"blue"	1	1303	0
151	5	"IncongProc1"	6	"Incong"	"green"	1	1159	0
151	5	"IncongProc1"	7	"Incong"	"blue"	1	1356	0
151	5	"IncongProc1"	8	"Incong"	"blue"	1	634	0
151	5	"IncongProc1"	9	"Incong"	"green"	1	789	0
151	5	"IncongProc1"	10	"Incong"	"green"	1	545	0
151	5	"IncongProc1"	11	"Incong"	"red"	1	799	0
151	5	"IncongProc1"	12	"Incong"	"red"	1	483	0
151	5	"IncongProc1"	13	"Incong"	"green"	1	652	0
151	5	"IncongProc1"	14	"Incong"	"yellow"	1	702	0
151	5	"IncongProc1"	15	"Incong"	"yellow"	1	1022	0
151	5	"IncongProc1"	16	"Incong"	"red"	1	1481	0
151	5	"IncongProc1"	18	"Incong"	"red"	1	1090	0
151	5	"IncongProc1"	19	"Incong"	"green"	1	1163	0
151	5	"IncongProc1"	20	"Incong"	"blue"	1	760	0
151	5	"IncongProc1"	21	"Incong"	"yellow"	1	870	0
151	5	"IncongProc1"	23	"Incong"	"red"	1	658	0
151	5	"IncongProc1"	24	"Incong"	"blue"	1	1132	0
151	5	"IncongProc1"	25	"Incong"	"red"	1	802	0
151	5	"IncongProc1"	26	"Incong"	"red"	1	1030	0
151	5	"IncongProc1"	27	"Incong"	"blue"	1	825	0
151	5	"IncongProc1"	28	"Incong"	"green"	1	884	0
151	5	"IncongProc1"	29	"Incong"	"red"	1	932	0
151	5	"IncongProc1"	31	"Incong"	"green"	1	1203	0
151	5	"IncongProc1"	32	"Incong"	"blue"	1	1215	0
151	5	"IncongProc1"	33	"Incong"	"green"	1	1162	0
151	5	"IncongProc1"	34	"Incong"	"yellow"	1	752	0
151	5	"IncongProc1"	35	"Incong"	"blue"	1	966	0
151	5	"IncongProc1"	37	"Incong"	"yellow"	1	557	0
151	5	"IncongProc1"	39	"Incong"	"red"	1	420	0
151	5	"IncongProc1"	40	"Incong"	"blue"	1	1008	0
151	5	"IncongProc1"	41	"Incong"	"yellow"	1	1163	0
151	5	"IncongProc1"	42	"Incong"	"blue"	1	888	0
151	5	"IncongProc1"	43	"Incong"	"yellow"	1	897	0
151	5	"IncongProc1"	44	"Incong"	"green"	1	825	0
151	5	"IncongProc1"	45	"Incong"	"green"	1	532	0
151	5	"IncongProc1"	46	"Incong"	"green"	1	474	0
151	6	"IncongProc2"	1	"Incong"	"yellow"	1	1311	0
151	6	"IncongProc2"	2	"Incong"	"yellow"	1	422	0
151	6	"IncongProc2"	3	"Incong"	"green"	1	699	0
151	6	"IncongProc2"	4	"Incong"	"red"	1	779	0
151	6	"IncongProc2"	5	"Incong"	"green"	1	1271	0
151	6	"IncongProc2"	6	"Incong"	"blue"	1	1352	0
151	6	"IncongProc2"	7	"Incong"	"yellow"	1	718	0
151	6	"IncongProc2"	9	"Incong"	"red"	1	1357	0
151	6	"IncongProc2"	10	"Incong"	"blue"	1	707	0
151	6	"IncongProc2"	11	"Incong"	"blue"	1	475	0
151	6	"IncongProc2"	12	"Incong"	"red"	1	636	0
151	6	"IncongProc2"	13	"Incong"	"blue"	1	790	0
151	6	"IncongProc2"	14	"Incong"	"yellow"	1	674	0
151	6	"IncongProc2"	18	"Incong"	"red"	1	642	0
151	6	"IncongProc2"	19	"Incong"	"red"	1	572	0
151	6	"IncongProc2"	20	"Incong"	"green"	1	914	0
151	6	"IncongProc2"	21	"Incong"	"yellow"	1	1057	0
151	6	"IncongProc2"	22	"Incong"	"blue"	1	1042	0
151	6	"IncongProc2"	23	"Incong"	"blue"	1	516	0
151	6	"IncongProc2"	24	"Incong"	"yellow"	1	700	0
151	6	"IncongProc2"	25	"Incong"	"green"	1	1372	0
151	6	"IncongProc2"	26	"Incong"	"red"	1	1312	0
151	6	"IncongProc2"	27	"Incong"	"green"	1	1000	0
151	6	"IncongProc2"	29	"Incong"	"blue"	1	803	0
151	6	"IncongProc2"	30	"Incong"	"red"	1	831	0
151	6	"IncongProc2"	31	"Incong"	"yellow"	1	754	0
151	6	"IncongProc2"	32	"Incong"	"blue"	1	936	0
151	6	"IncongProc2"	33	"Incong"	"yellow"	1	1159	0
151	6	"IncongProc2"	34	"Incong"	"red"	1	692	0
151	6	"IncongProc2"	36	"Incong"	"green"	1	885	0
151	6	"IncongProc2"	38	"Incong"	"blue"	1	1541	0
151	6	"IncongProc2"	39	"Incong"	"green"	1	1115	0
151	6	"IncongProc2"	40	"Incong"	"green"	1	739	0
151	6	"IncongProc2"	41	"Incong"	"green"	1	521	0
151	6	"IncongProc2"	43	"Incong"	"red"	1	709	0
151	6	"IncongProc2"	44	"Incong"	"red"	1	572	0
151	6	"IncongProc2"	45	"Incong"	"blue"	1	601	0
151	6	"IncongProc2"	46	"Incong"	"yellow"	1	893	0
151	6	"IncongProc2"	47	"Incong"	"yellow"	1	525	0
151	6	"IncongProc2"	48	"Incong"	"yellow"	1	412	0
151	7	"IncongProc3"	1	"Incong"	"yellow"	1	1128	0
151	7	"IncongProc3"	2	"Incong"	"yellow"	1	471	0
151	7	"IncongProc3"	4	"Incong"	"blue"	1	839	0
151	7	"IncongProc3"	5	"Incong"	"green"	1	457	0
151	7	"IncongProc3"	6	"Incong"	"green"	1	643	0
151	7	"IncongProc3"	7	"Incong"	"blue"	1	821	0
151	7	"IncongProc3"	8	"Incong"	"red"	1	721	0
151	7	"IncongProc3"	9	"Incong"	"yellow"	1	1168	0
151	7	"IncongProc3"	11	"Incong"	"red"	1	1319	0
151	7	"IncongProc3"	12	"Incong"	"green"	1	878	0
151	7	"IncongProc3"	13	"Incong"	"yellow"	1	1079	0
151	7	"IncongProc3"	14	"Incong"	"green"	1	848	0
151	7	"IncongProc3"	15	"Incong"	"green"	1	826	0
151	7	"IncongProc3"	16	"Incong"	"red"	1	748	0
151	7	"IncongProc3"	17	"Incong"	"yellow"	1	1178	0
151	7	"IncongProc3"	18	"Incong"	"green"	1	879	0
151	7	"IncongProc3"	19	"Incong"	"yellow"	1	976	0
151	7	"IncongProc3"	20	"Incong"	"red"	1	1380	0
151	7	"IncongProc3"	21	"Incong"	"red"	1	617	0
151	7	"IncongProc3"	22	"Incong"	"blue"	1	604	0
151	7	"IncongProc3"	23	"Incong"	"blue"	1	704	0
151	7	"IncongProc3"	24	"Incong"	"blue"	1	552	0
151	7	"IncongProc3"	25	"Incong"	"green"	1	678	0
151	7	"IncongProc3"	26	"Incong"	"yellow"	1	687	0
151	7	"IncongProc3"	27	"Incong"	"blue"	1	848	0
151	7	"IncongProc3"	28	"Incong"	"green"	1	658	0
151	7	"IncongProc3"	29	"Incong"	"red"	1	659	0
151	7	"IncongProc3"	30	"Incong"	"red"	1	828	0
151	7	"IncongProc3"	31	"Incong"	"red"	1	495	0
151	7	"IncongProc3"	32	"Incong"	"blue"	1	823	0
151	7	"IncongProc3"	34	"Incong"	"yellow"	1	1050	0
151	7	"IncongProc3"	35	"Incong"	"blue"	1	1172	0
151	7	"IncongProc3"	37	"Incong"	"red"	1	688	0
151	7	"IncongProc3"	40	"Incong"	"blue"	1	589	0
151	7	"IncongProc3"	42	"Incong"	"green"	1	795	0
151	7	"IncongProc3"	43	"Incong"	"red"	1	775	0
151	7	"IncongProc3"	44	"Incong"	"yellow"	1	691	0
151	7	"IncongProc3"	46	"Incong"	"green"	1	1371	0
151	7	"IncongProc3"	48	"Incong"	"yellow"	1	999	0
154	2	"CongProc1"	3	"Cong"	"blue"	1	730	0
154	2	"CongProc1"	5	"Cong"	"yellow"	1	651	0
154	2	"CongProc1"	6	"Cong"	"red"	1	589	0
154	2	"CongProc1"	7	"Cong"	"blue"	1	442	0
154	2	"CongProc1"	8	"Cong"	"green"	1	556	0
154	2	"CongProc1"	9	"Cong"	"green"	1	610	0
154	2	"CongProc1"	10	"Cong"	"yellow"	1	485	0
154	2	"CongProc1"	11	"Cong"	"blue"	1	758	0
154	2	"CongProc1"	12	"Cong"	"red"	1	595	0
154	2	"CongProc1"	13	"Cong"	"green"	1	775	0
154	2	"CongProc1"	14	"Cong"	"blue"	1	580	0
154	2	"CongProc1"	15	"Cong"	"yellow"	1	649	0
154	2	"CongProc1"	16	"Cong"	"red"	1	635	0
154	2	"CongProc1"	18	"Cong"	"blue"	1	509	0
154	2	"CongProc1"	20	"Cong"	"red"	1	547	0
154	2	"CongProc1"	21	"Cong"	"blue"	1	617	0
154	2	"CongProc1"	22	"Cong"	"yellow"	1	652	0
154	2	"CongProc1"	24	"Cong"	"green"	1	780	0
154	2	"CongProc1"	25	"Cong"	"blue"	1	721	0
154	2	"CongProc1"	26	"Cong"	"yellow"	1	720	0
154	2	"CongProc1"	27	"Cong"	"green"	1	648	0
154	2	"CongProc1"	28	"Cong"	"red"	1	506	0
154	2	"CongProc1"	29	"Cong"	"green"	1	762	0
154	2	"CongProc1"	30	"Cong"	"yellow"	1	543	0
154	2	"CongProc1"	31	"Cong"	"red"	1	653	0
154	2	"CongProc1"	32	"Cong"	"blue"	1	639	0
154	2	"CongProc1"	33	"Cong"	"green"	1	730	0
154	2	"CongProc1"	35	"Cong"	"blue"	1	646	0
154	2	"CongProc1"	36	"Cong"	"yellow"	1	624	0
154	2	"CongProc1"	37	"Cong"	"yellow"	1	610	0
154	2	"CongProc1"	38	"Cong"	"blue"	1	661	0
154	2	"CongProc1"	39	"Cong"	"green"	1	575	0
154	2	"CongProc1"	40	"Cong"	"red"	1	627	0
154	2	"CongProc1"	41	"Cong"	"green"	1	630	0
154	2	"CongProc1"	42	"Cong"	"yellow"	1	650	0
154	2	"CongProc1"	43	"Cong"	"red"	1	723	0
154	2	"CongProc1"	44	"Cong"	"blue"	1	698	0
154	2	"CongProc1"	45	"Cong"	"yellow"	1	818	0
154	2	"CongProc1"	46	"Cong"	"red"	1	717	0
154	2	"CongProc1"	47	"Cong"	"blue"	1	781	0
154	2	"CongProc1"	48	"Cong"	"green"	1	609	0
154	3	"CongProc2"	1	"Cong"	"blue"	1	767	0
154	3	"CongProc2"	2	"Cong"	"red"	1	660	0
154	3	"CongProc2"	3	"Cong"	"yellow"	1	901	0
154	3	"CongProc2"	4	"Cong"	"green"	1	629	0
154	3	"CongProc2"	5	"Cong"	"yellow"	1	592	0
154	3	"CongProc2"	6	"Cong"	"red"	1	596	0
154	3	"CongProc2"	7	"Cong"	"blue"	1	656	0
154	3	"CongProc2"	8	"Cong"	"green"	1	673	0
154	3	"CongProc2"	9	"Cong"	"green"	1	642	0
154	3	"CongProc2"	10	"Cong"	"blue"	1	684	0
154	3	"CongProc2"	11	"Cong"	"yellow"	1	677	0
154	3	"CongProc2"	12	"Cong"	"red"	1	566	0
154	3	"CongProc2"	13	"Cong"	"green"	1	643	0
154	3	"CongProc2"	14	"Cong"	"blue"	1	534	0
154	3	"CongProc2"	15	"Cong"	"red"	1	612	0
154	3	"CongProc2"	16	"Cong"	"yellow"	1	608	0
154	3	"CongProc2"	17	"Cong"	"yellow"	1	668	0
154	3	"CongProc2"	19	"Cong"	"blue"	1	543	0
154	3	"CongProc2"	20	"Cong"	"red"	1	429	0
154	3	"CongProc2"	21	"Cong"	"blue"	1	736	0
154	3	"CongProc2"	22	"Cong"	"green"	1	822	0
154	3	"CongProc2"	23	"Cong"	"red"	1	866	0
154	3	"CongProc2"	24	"Cong"	"yellow"	1	491	0
154	3	"CongProc2"	25	"Cong"	"yellow"	1	484	0
154	3	"CongProc2"	26	"Cong"	"blue"	1	564	0
154	3	"CongProc2"	27	"Cong"	"red"	1	482	0
154	3	"CongProc2"	28	"Cong"	"green"	1	618	0
154	3	"CongProc2"	29	"Cong"	"red"	1	582	0
154	3	"CongProc2"	30	"Cong"	"yellow"	1	546	0
154	3	"CongProc2"	31	"Cong"	"blue"	1	784	0
154	3	"CongProc2"	32	"Cong"	"green"	1	701	0
154	3	"CongProc2"	33	"Cong"	"blue"	1	701	0
154	3	"CongProc2"	34	"Cong"	"yellow"	1	733	0
154	3	"CongProc2"	35	"Cong"	"green"	1	748	0
154	3	"CongProc2"	36	"Cong"	"red"	1	610	0
154	3	"CongProc2"	37	"Cong"	"yellow"	1	621	0
154	3	"CongProc2"	39	"Cong"	"red"	1	618	0
154	3	"CongProc2"	40	"Cong"	"blue"	1	517	0
154	3	"CongProc2"	41	"Cong"	"yellow"	1	532	0
154	3	"CongProc2"	42	"Cong"	"red"	1	531	0
154	3	"CongProc2"	43	"Cong"	"green"	1	794	0
154	3	"CongProc2"	44	"Cong"	"blue"	1	518	0
154	3	"CongProc2"	45	"Cong"	"blue"	1	557	0
154	3	"CongProc2"	46	"Cong"	"yellow"	1	475	0
154	3	"CongProc2"	47	"Cong"	"red"	1	620	0
154	3	"CongProc2"	48	"Cong"	"green"	1	887	0
154	5	"IncongProc1"	1	"Incong"	"red"	1	1186	0
154	5	"IncongProc1"	2	"Incong"	"red"	1	991	0
154	5	"IncongProc1"	3	"Incong"	"red"	1	692	0
154	5	"IncongProc1"	4	"Incong"	"green"	1	1276	0
154	5	"IncongProc1"	5	"Incong"	"blue"	1	1044	0
154	5	"IncongProc1"	6	"Incong"	"yellow"	1	782	0
154	5	"IncongProc1"	7	"Incong"	"green"	1	1067	0
154	5	"IncongProc1"	8	"Incong"	"blue"	1	828	0
154	5	"IncongProc1"	9	"Incong"	"blue"	1	975	0
154	5	"IncongProc1"	10	"Incong"	"yellow"	1	1004	0
154	5	"IncongProc1"	11	"Incong"	"yellow"	1	968	0
154	5	"IncongProc1"	12	"Incong"	"green"	1	845	0
154	5	"IncongProc1"	13	"Incong"	"red"	1	862	0
154	5	"IncongProc1"	14	"Incong"	"blue"	1	840	0
154	5	"IncongProc1"	15	"Incong"	"red"	1	939	0
154	5	"IncongProc1"	16	"Incong"	"blue"	1	793	0
154	5	"IncongProc1"	17	"Incong"	"yellow"	1	909	0
154	5	"IncongProc1"	18	"Incong"	"green"	1	940	0
154	5	"IncongProc1"	19	"Incong"	"green"	1	946	0
154	5	"IncongProc1"	20	"Incong"	"blue"	1	752	0
154	5	"IncongProc1"	21	"Incong"	"red"	1	1102	0
154	5	"IncongProc1"	22	"Incong"	"green"	1	1198	0
154	5	"IncongProc1"	23	"Incong"	"yellow"	1	514	0
154	5	"IncongProc1"	24	"Incong"	"yellow"	1	585	0
154	5	"IncongProc1"	26	"Incong"	"blue"	1	666	0
154	5	"IncongProc1"	27	"Incong"	"blue"	1	643	0
154	5	"IncongProc1"	28	"Incong"	"yellow"	1	917	0
154	5	"IncongProc1"	29	"Incong"	"yellow"	1	581	0
154	5	"IncongProc1"	30	"Incong"	"yellow"	1	585	0
